acc_x,acc_y,acc_z,gyro_x,gyro_y,gyro_z,la_x,la_y,la_z,Activity
0.1058824, -0.84137625, 9.855738,-0.5581617, -0.015729317, 0.21753798,0.0, 0.0, 0.0,Lying
0.7283154, -0.017647067, 8.780762,-0.5581617, -0.015729317, 0.21753798,0.24742085, 0.3577328, -0.5406933,Lying
1.0776675, 0.6550352, 8.653643,0.72477025, -0.7347729, -0.19111884,0.34041494, 0.6393136, -0.44355583,Lying
1.7407784, 0.35324043, 9.067901,0.5576272, -0.65414107, -0.066506,0.7086896, 0.21130751, -0.01812172,Lying
1.8631115, -0.2835495, 9.714262,0.39613444, -0.47508645, 0.09048175,0.63965714, -0.39223927, 0.5065031,Lying
1.6163517, -0.5276174, 10.305588,0.3345916, -0.32726142, 0.25174543,0.3313954, -0.60395396, 0.91558456,Lying
1.7769699, -0.6089734, 9.980165,0.40667155, -0.16783029, 0.37452573,0.45156026, -0.6764252, 0.50286674,Lying
1.7937196, -0.051146585, 9.369696,0.5544966, 0.033749312, 0.49547347,0.4203329, -0.181182, -0.094732285,Lying
1.8774685, 0.4109673, 8.960223,0.6315397, 0.19684553, 0.5058579,0.41247642, 0.20104975, -0.44205284,Lying
1.815255, 0.39661035, 8.780762,0.5271612, 0.069178455, 0.3714715,0.26744485, 0.14624271, -0.55135536,Lying
1.5086746, 0.2551347, 8.88126,0.31473905, -0.21364383, 0.13812783,-0.06516969, 0.0060727447, -0.40488052,Lying
1.4081762, 0.34606197, 9.608977,0.124001995, -0.28877804, -0.044515494,-0.17091429, 0.09208685, 0.29917336,Lying
1.9564316, 0.401396, 9.987343,-0.015194826, -0.17943639, -0.035352785,0.32410908, 0.12623873, 0.62973785,Lying
2.5645077, 0.61435723, 9.73819,-0.0051922016, -0.11163234, 0.07887565,0.83581233, 0.30240595, 0.35919,Lying
2.7535408, 0.8536395, 9.082257,0.06872032, -0.14156385, 0.06910209,0.94329274, 0.5110072, -0.27471542,Lying
2.344368, 0.6023931, 8.59143,0.058106847, -0.17760384, -0.09155073,0.51479065, 0.28063095, -0.72169113,Lying
1.3674982, 0.40378883, 9.168399,-0.08162446, -0.0865876, -0.2735832,-0.42088318, 0.13679272, -0.14078522,Lying
1.1856437, 0.14027923, 9.317053,-0.28167695, 0.07101099, -0.33955473,-0.56695855, -0.04722148, 0.004989624,Lying
1.5062819, 0.0038883367, 9.479765,-0.38605547, 0.074676074, -0.20028155,-0.23810971, -0.09910454, 0.15869236,Lying
1.8535402, 0.037387855, 9.412766,-0.43454146, 0.01175881, -0.08116633,0.09709656, 0.010705128, 0.087786674,Lying
2.2028923, 0.14506488, 9.675977,-0.44943088, -0.029778805, -0.08910734,0.4106406, 0.18210582, 0.3372755,Lying
2.344368, 0.10917253, 9.807582,-0.44943088, -0.038330667, -0.15630054,0.5180541, 0.2037926, 0.4498043,Lying
2.480759, -0.44147578, 9.530014,-0.44446772, -0.08414421, -0.24731678,0.6488066, -0.26950556, 0.16104412,Lying
1.9707886, -0.4127619, 9.834202,-0.42950198, -0.047493376, -0.32367268,0.17475927, -0.17702271, 0.4388113,Lying
1.6737795, -0.46301118, 10.231411,-0.42644775, 0.13453911, -0.3713188,-0.07524586, -0.18240085, 0.7958269,Lying
1.678565, -0.6161518, 10.126126,-0.36116344, 0.24265908, -0.29190862,-0.031924725, -0.3051696, 0.6579008,Lying
1.6043876, -0.654437, 9.958629,-0.24128467, 0.24265908, -0.20700087,-0.07543528, -0.324946, 0.46755123,Lying
1.3698909, -0.6329016, 9.733404,-0.12759072, 0.20600824, -0.15874393,-0.28994858, -0.29075336, 0.23231411,Lying
1.1231312, -0.573081, 9.896416,-0.05986303, 0.15469708, -0.15324631,-0.53089046, -0.22284472, 0.38374615,Lying
0.96520483, -0.47736812, 9.786046,-0.037567105, 0.055739813, -0.1556897,-0.6833136, -0.124402314, 0.267478,Lying
1.1757733, -0.5395815, 9.752547,-0.024510246, -0.06642964, -0.13675343,-0.47910213, -0.18484631, 0.23004532,Lying
1.4273187, -0.40558344, 10.190733,-0.008322794, -0.09269607, -0.09704836,-0.25658083, -0.06819171, 0.6529217,Lying
1.5661024, -0.2428715, 9.896416,0.012140589, -0.11774081, -0.0640626,-0.14761186, 0.06284532, 0.35257816,Lying
1.7458632, -0.2548356, 9.434301,0.10040802, -0.1977618, -0.026190076,0.012124419, 0.026855767, -0.10354614,Lying
2.0162523, -0.31465617, 9.089436,0.16248538, -0.184934, 0.018401774,0.2735275, -0.04219711, -0.43559074,Lying
2.4352953, -0.68075806, 9.415159,0.13018683, -0.10491302, 0.03489465,0.68400633, -0.4016339, -0.109025,Lying
2.6721847, -2.1652055, 10.473385,0.05688515, -0.005955761, 0.0061848285,0.9138894, -1.8579215, 0.91962147,Lying
2.018645, -4.11386, 11.541182,-0.0045813546, 0.06368083, -0.16057648,0.19890475, -3.7593186, 1.9437447,Lying
-1.4001004, -2.9790642, 13.779668,0.009086353, 0.11560284, -0.6394807,-3.3827858, -2.6216588, 4.1227207,Lying
-4.282554, -1.0351949, 15.196816,0.05444176, -0.26190075, -1.2577345,-6.555333, -0.74136055, 5.5017233,Lying
-5.7023954, -1.2936198, 14.938392,0.020845164, -1.2857571, -1.6382923,-8.178248, -1.1202028, 5.214113,Lying
-7.1243305, -1.3992031, 12.07508,0.052532863, -2.373676, -1.6889926,-9.445602, -1.3666217, 2.3123922,Lying
-5.58754, -1.4446666, 7.906783,0.5104392, -2.1275046, -1.0707389,-7.362618, -1.5112966, -1.8909893,Lying
-2.6832514, -0.9705887, 4.3277187,1.0011786, -0.39750886, 0.32443625,-3.6166818, -1.076573, -5.4501824,Lying
-0.2748755, -0.96819586, 3.7651064,1.0378295, 1.9334843, 1.5265837,-0.29007176, -1.0812179, -5.9222264,Lying
1.3698909, -1.4039887, 4.3995037,0.64085513, 3.940194, 2.1491134,2.1352344, -1.5305998, -5.1387677,Lying
2.818147, -1.2984054, 5.239683,0.2824405, 4.7661357, 2.3958957,4.0503683, -1.4791279, -4.145927,Lying
4.0441694, -0.49172506, 7.0785675,0.14881766, 4.3940535, 2.4325466,5.215312, -0.77327704, -2.2496796,Lying
3.790231, 2.271088, 11.213066,0.20845163, 3.011706, 2.26212,4.092491, 1.8272746, 1.7869864,Lying
6.0119667, 5.8429737, 16.468004,0.36689013, 0.32145837, 1.958529,4.907468, 5.202343, 6.9536486,Lying
16.251453, 5.1942196, 10.758131,0.5066978, -4.196521, 1.8571284,14.444201, 4.595596, 1.2674809,Lying
20.18974, 0.15702899, 12.742977,0.54579204, -6.9814496, 1.718466,18.409206, -0.19404967, 3.113308,Lying
12.219846, 0.13549358, 15.034104,-0.5538094, -2.150106, 1.1527451,10.718776, -0.19169949, 5.2260036,Lying
8.293523, 0.25034907, 9.865309,-1.1843565, 2.1070414, 0.66834325,7.058061, -0.25552267, 0.011936188,Lying
6.2033925, -0.2883351, 6.0729837,-0.041843038, 2.571896, 0.40201384,5.1258154, -1.0302898, -3.7233982,Lying
3.292225, 1.1817553, 6.1998034,0.8999307, 2.0483236, -0.40613708,2.18603, 0.2053191, -3.5136476,Lying
0.46241298, 1.6031911, 6.020342,1.1384666, 1.198635, -1.6389031,-0.8542856, 0.48649204, -3.5866227,Lying
-1.4694922, 1.5074782, 6.0323057,0.9552124, -0.14339639, -2.2802927,-3.0973213, 0.39782608, -3.4584222,Lying
-2.3769703, 0.95682997, 5.6300125,0.39857784, -1.4427449, -2.3615355,-4.2172356, 0.05908382, -3.7649593,Lying
-2.92044, 0.13549358, 5.273183,-0.3991123, -2.1879785, -2.091541,-4.639618, -0.31479716, -4.092281,Lying
-3.8997028, -1.0423734, 9.218648,-1.4508386, -1.7109069, -1.6352382,-5.174557, -0.9308853, -0.21222591,Lying
-2.9300113, -3.3382866, 12.790833,-2.5678492, 0.1601947, -0.8923715,-3.7151518, -2.711529, 3.275217,Lying
-2.1158533, -3.7764723, 15.120246,-2.9816217, 1.9334843, -0.109265305,-2.5522332, -2.865859, 5.513935,Lying
-1.3666009, -3.9104705, 15.924534,-2.5175307, 2.303734, 0.19921257,-1.700173, -3.0006495, 6.2121487,Lying
-1.5364913, -3.4052858, 14.145769,-1.2681953, 1.6439427, 0.048944138,-2.009746, -2.7036285, 4.3524847,Lying
-2.1999013, -2.5292134, 11.172388,0.24326992, 0.43324342, -0.33588964,-2.9562063, -2.0996802, 1.3623676,Lying
-1.8693926, -1.4709877, 8.816654,1.2869788, -0.8465579, -0.6095492,-2.9198346, -1.2743862, -0.95481205,Lying
-0.47108695, -0.49172506, 7.9354973,1.5466653, -1.6766994, -0.5954997,-1.7517785, -0.4556093, -1.7802505,Lying
0.75463647, 0.10677971, 8.581859,1.2751436, -1.746336, -0.38781166,-0.6922046, 0.032850213, -1.0926847,Lying
1.707279, 0.58564335, 9.209077,0.86144733, -1.3364575, -0.10071344,0.13598394, 0.41322905, -0.43877602,Lying
2.5142584, 0.7076773, 9.506086,0.6042043, -0.9253572, 0.20043425,0.8277725, 0.42991436, -0.12052059,Lying
3.139084, 1.0357931, 9.561121,0.55388576, -0.64131325, 0.42339352,1.3430281, 0.6442257, -0.0449028,Lying
3.5006995, 1.3253247, 8.704191,0.6017609, -0.5349495, 0.45637926,1.6282966, 0.84895766, -0.87637234,Lying
3.3017962, 1.3899308, 8.139186,0.6116872, -0.46958882, 0.31954947,1.3991768, 0.89376163, -1.4193516,Lying
2.871088, 1.1171491, 7.990532,0.4072824, -0.28022617, 0.1002553,0.9805641, 0.66933924, -1.5546446,Lying
2.4305096, 0.68135625, 8.447861,0.0264955, -0.063375406, -0.070781924,0.58015716, 0.32084638, -1.0959587,Lying
1.9588244, 0.3484548, 9.036794,-0.34070006, 0.12781979, -0.17218257,0.16162789, 0.07964414, -0.5138378,Lying
1.6283158, 0.039780676, 9.5252285,-0.532048, 0.24571331, -0.22471544,-0.11330485, -0.15214965, -0.036780357,Lying
1.3722838, -0.11335997, 9.824631,-0.54075253, 0.28664008, -0.24426255,-0.31041384, -0.24677324, 0.24847794,Lying
1.2358929, -0.10378868, 9.953843,-0.441948, 0.28236416, -0.22532628,-0.38332784, -0.1914883, 0.36253738,Lying
1.4321043, -0.058325052, 10.0112705,-0.32016033, 0.290916, -0.13919681,-0.13059247, -0.103206806, 0.4055481,Lying
1.666601, -0.015254244, 10.0830555,-0.23632154, 0.31168482, -0.035352785,0.14717686, -0.01460063, 0.46432686,Lying
1.7168503, -0.14446667, 10.221839,-0.21952324, 0.290916, 0.004963134,0.22756088, -0.10166171, 0.59093094,Lying
1.5541383, -0.20458634, 10.229017,-0.24319357, 0.23838314, -0.017638214,0.09457493, -0.1318053, 0.58647823,Lying
1.3698909, -0.12532409, 9.949058,-0.22326468, 0.17424418, -0.04023956,-0.062876344, -0.02469296, 0.29913616,Lying
1.3938192, -0.21415763, 9.333803,-0.15248275, 0.16385978, -0.024357535,-0.017478704, -0.07241994, -0.31507206,Lying
1.3507484, -0.28594232, 9.333803,-0.14813046, 0.13820419, -0.007864659,-0.044878125, -0.09822139, -0.3128786,Lying
1.3004991, -0.38644084, 9.72144,-0.21517095, 0.112548605, -0.02741177,-0.086075425, -0.16256645, 0.07368088,Lying
1.2933207, -0.47736812, 10.147662,-0.24250636, 0.08078455, -0.03840702,-0.092292905, -0.23952854, 0.49449253,Lying
1.3555341, -0.49172506, 10.185946,-0.18661384, 0.04352287, -0.03657448,-0.03445673, -0.2603745, 0.5273361,Lying
1.3842479, -0.34576288, 9.963414,-0.06673507, 7.635591E-4, -0.04940227,-0.019434333, -0.13089967, 0.30291748,Lying
1.2933207, -0.22612174, 9.9394865,0.03642177, -0.023059484, -0.09216158,-0.14002931, -0.03343229, 0.28000164,Lying
1.314856, -0.122931264, 9.70469,0.078035735, -0.07070557, -0.11781716,-0.15120327, 0.048705652, 0.049619675,Lying
1.4344971, -0.118145615, 9.496515,0.105371155, -0.16233265, -0.09460497,-0.058542132, 0.039860874, -0.1530056,Lying
1.5541383, -0.09661021, 9.486943,0.097277425, -0.18004723, -0.06467345,0.039164543, 0.054698758, -0.1576395,Lying
1.6977077, -0.072681986, 9.398409,0.062459134, -0.14522894, -0.046958882,0.17158103, 0.08287642, -0.24210644,Lying
1.8056837, -0.041575294, 9.405587,0.027717194, -0.11346488, -0.02985516,0.28021085, 0.12890562, -0.23282719,Lying
1.7817556, -0.067896344, 9.666406,-0.03130592, -0.049325917, -0.02741177,0.26227844, 0.11923197, 0.026810646,Lying
1.6642082, -0.15643078, 9.90838,-0.092848785, 0.020921519, -0.043904647,0.15035295, 0.04155074, 0.26504898,Lying
1.5349957, -0.2548356, 9.853345,-0.103996746, 0.04718795, -0.059786674,0.024564385, -0.04747978, 0.20248127,Lying
1.3986049, -0.2835495, 9.685548,-0.07108735, 0.03802524, -0.071392775,-0.10439932, -0.0663027, 0.033302307,Lying
1.3387842, -0.35294133, 9.640084,-0.051845662, 0.024586603, -0.078112096,-0.16032696, -0.12534896, -0.0114040375,Lying
1.3196417, -0.37447673, 9.75494,-0.051158458, 0.022143213, -0.07017108,-0.18303216, -0.14280325, 0.10152912,Lying
1.4344971, -0.3696911, 9.831809,-0.040621344, -0.0071774554, -0.055510744,-0.078573704, -0.1419508, 0.17399216,Lying
1.5469599, -0.30508488, 9.73819,-0.0015271181, -0.051158458, -0.037796173,0.021264076, -0.0844665, 0.0795269,Lying
1.6426728, -0.23090738, 9.702297,0.042606596, -0.068873025, -0.025579229,0.10624838, -0.01790367, 0.0430727,Lying
1.6689938, -0.23808585, 9.714262,0.05131117, -0.062764555, -0.011529742,0.12404096, -0.030247465, 0.053733826,Lying
1.6426728, -0.19740787, 9.740582,0.04512634, -0.03771982, 0.0092390645,0.088338494, 0.004001543, 0.078250885,Lying
1.6426728, -0.18753748, 9.726226,0.037032615, -0.023059484, 0.026953636,0.07699263, 0.0060979277, 0.06296921,Lying
1.6283158, -0.14925231, 9.709476,0.038865156, -0.034054734, 0.03489465,0.04947579, 0.035322428, 0.04631996,Lying
1.5780666, -0.122931264, 9.793225,0.04199575, -0.046271678, 0.022677705,-0.0123438835, 0.047500893, 0.12745094,Lying
1.5804594, -0.16600206, 9.714262,0.0413849, -0.060321167, -5.344914E-4,-0.02176559, -0.00905849, 0.048612595,Lying
1.5613167, -0.1372882, 9.599406,0.06314634, -0.062764555, -0.017638214,-0.049883485, 0.008535475, -0.06254101,Lying
1.5828521, -0.14446667, 9.544372,0.06872032, -0.065818794, -0.023746688,-0.03747356, -0.0053388625, -0.11209679,Lying
1.625923, -0.12532409, 9.573085,0.05444176, -0.056045234, -0.01641652,-0.0036283731, 0.009059966, -0.079125404,Lying
1.6331015, -0.1372882, 9.491729,0.03451287, -0.05482354, -0.010308048,-6.855726E-4, -0.0010202527, -0.15445137,Lying
1.6378871, -0.10139586, 9.520443,0.022143213, -0.049325917, -0.007864659,0.005711198, 0.041792236, -0.12170982,Lying
1.7120646, -0.118145615, 9.656834,-0.010231691, -0.022448637, -0.0023670332,0.083723664, 0.032694057, 0.013301849,Lying
1.7721843, -0.17318054, 9.711869,-0.04123219, 0.009315421, 0.016569233,0.14644039, -0.013809413, 0.06492424,Lying
1.6833507, -0.25004998, 9.642477,-0.04253024, 0.034971006, 0.023288552,0.06467795, -0.07733169, -0.0056524277,Lying
1.5469599, -0.26919255, 9.55155,-0.04123219, 0.041690327, 0.0086282175,-0.057221174, -0.07815878, -0.09515953,Lying
1.5182459, -0.15164514, 9.723833,-0.054899897, 0.047798797, 6.8720314E-4,-0.07609558, 0.05111745, 0.073755264,Lying
1.625923, -0.2548356, 10.001699,-0.079181075, 0.066124216, 0.020234315,0.027690053, -0.051418856, 0.3402052,Lying
1.666601, -0.30987054, 10.008878,-0.066124216, 0.037414394, 0.038559735,0.05543387, -0.11627355, 0.33730984,Lying
1.5134603, -0.23569304, 9.831809,0.011529742, -0.016340164, 0.026342789,-0.1084013, -0.05636771, 0.15682888,Lying
1.5134603, -0.20219351, 9.740582,0.07490514, -0.058488626, 0.012904149,-0.12084651, -0.037024483, 0.06609917,Lying
1.6378871, -0.17796618, 9.671191,0.091092594, -0.0762032, 0.03245126,-0.012447834, -0.028615952, -7.648468E-4,Lying
1.7697915, -0.14925231, 9.580264,0.09048175, -0.08842014, 0.053830914,0.09963894, -0.014160305, -0.086214066,Lying
1.815255, -0.09421739, 9.532407,0.09544489, -0.087809294, 0.049554985,0.12763429, 0.027923718, -0.12758636,Lying
1.8056837, -0.08225328, 9.561121,0.08116633, -0.08536591, 0.019623468,0.10626805, 0.030490585, -0.094285965,Lying
1.7697915, -0.118145615, 9.515657,0.061848287, -0.068873025, -0.008475506,0.06609571, -0.007470228, -0.13480186,Lying
1.7288144, -0.1061815, 9.546764,0.040774055, -0.042606596, -0.01885991,0.026790261, 0.007040791, -0.10058689,Lying
1.7288144, -0.1372882, 9.61137,0.009086353, -0.010231691, -0.017638214,0.02926135, -0.019126527, -0.035290718,Lying
1.7024933, -0.13489537, 9.625728,-0.01641652, 0.012369657, -0.0096972,0.0065327883, -0.011374138, -0.020821571,Lying
1.6642082, -0.122931264, 9.625728,-0.023899399, 0.018478129, -0.0066429637,-0.02777946, 0.005553931, -0.02057743,Lying
1.6642082, -0.12053844, 9.747761,-0.026953636, 0.020310672, -0.0041995747,-0.026045203, 0.009115867, 0.09801674,Lying
1.7336, -0.17078772, 9.714262,-0.026953636, 0.016034741, 0.0012980504,0.04305923, -0.040354893, 0.06214428,Lying
1.678565, -0.13968103, 9.716655,-0.0077119465, 0.004428643, 6.8720314E-4,-0.011485457, -0.009432033, 0.06235981,Lying
1.6953149, -0.15882361, 9.692726,0.001603474, 0.0062611843, -0.008475506,0.0032089949, -0.028289422, 0.037460327,Lying
1.7001005, -0.14446667, 9.661619,0.001603474, 7.635591E-4, -0.0066429637,0.006079197, -0.01348646, 0.006415367,Lying
1.6713866, -0.118145615, 9.601799,0.0028251687, -0.010231691, -0.0041995747,-0.01961267, 0.014089927, -0.052034378,Lying
1.7024933, -0.122931264, 9.592228,3.8177954E-4, -0.009009997, 0.0012980504,0.016094565, 0.01077421, -0.06040001,Lying
1.7482561, -0.09421739, 9.824631,-0.0077119465, 0.012369657, 0.0080173705,0.058312535, 0.03411627, 0.16625786,Lying
1.7216359, -0.14207384, 9.848558,-0.008322794, 0.027029991, 0.0080173705,0.025967836, -0.023864403, 0.1845913,Lying
1.6307086, -0.16600206, 9.778868,0.02145601, -0.006566608, -0.0041995747,-0.06878173, -0.0569615, 0.1122427,Lying
1.6139588, -0.15643078, 9.697512,0.05444176, -0.026724568, -0.018249061,-0.09207785, -0.054341264, 0.03137684,Lying
1.6546369, -0.0846461, 9.642477,0.056274302, -0.032222193, -0.013362284,-0.06027341, 0.009379372, -0.021094322,Lying
1.7383857, -0.077467635, 9.544372,0.046348035, -0.051158458, -0.0011453386,0.015049458, 0.010226764, -0.113965034,Lying
1.7793628, -0.072681986, 9.546764,0.04199575, -0.05787778, 0.0055739814,0.049678087, 0.009439014, -0.1071434,Lying
1.8056837, -0.08225328, 9.582657,0.033291176, -0.04199575, 0.0098499125,0.07216656, -0.0044015422, -0.068657875,Lying
1.788934, -0.10139586, 9.620942,0.029549737, -0.023059484, 0.0104607595,0.052793026, -0.025310375, -0.029222488,Lying
1.7240287, -0.08943175, 9.656834,0.023975754, -0.0071774554, 0.0037414394,-0.013907552, -0.013269298, 0.0069055557,Lying
1.6522441, -0.063110694, 9.6783695,0.012827792, -0.004123219, -0.0060321167,-0.08565998, 0.013928711, 0.028017998,Lying
1.6809579, -0.060717873, 9.680762,-2.2906772E-4, -0.0132859275, -0.012751437,-0.057810426, 0.01741279, 0.029911995,Lying
1.7482561, -0.053539407, 9.616156,-0.008933641, -0.0151184695, -0.010308048,0.008381724, 0.026554182, -0.03345108,Lying
1.7721843, -0.04636094, 9.508479,-0.009544488, -0.0151184695, -0.0035887277,0.034968138, 0.039874084, -0.13708496,Lying
1.8080766, -0.0846461, 9.565907,-0.015194826, -0.0029015245, 7.635591E-5,0.075585485, 0.009885289, -0.078165054,Lying
1.8104694, -0.11096715, 9.735797,-0.0387888, 0.020310672, 0.004963134,0.080626726, -0.012321293, 0.08785057,Lying
1.6857436, -0.16600206, 9.85813,-0.045584477, 0.03863609, 6.8720314E-4,-0.04409921, -0.06833444, 0.20322323,Lying
1.5900307, -0.15164514, 9.903594,-0.02260135, 0.028862532, -0.017027367,-0.14413822, -0.060268246, 0.24194813,Lying
1.6378871, -0.12053844, 9.757333,0.01343864, -0.009009997, -0.022524992,-0.10307884, -0.037359945, 0.094433784,Lying
1.7697915, -0.058325052, 9.618548,0.043217443, -0.04871507, -0.005421269,0.020530462, 0.017028742, -0.041716576,Lying
1.8535402, -0.034396827, 9.546764,0.052532863, -0.05482354, 0.013514996,0.09797418, 0.034873948, -0.109270096,Lying
1.8535402, -0.015254244, 9.489336,0.04199575, -0.038941514, 0.020234315,0.09484208, 0.05084782, -0.16120434,Lying
1.7697915, -0.022432713, 9.587442,0.027717194, -0.015729317, 0.0104607595,0.010029435, 0.042498134, -0.060824394,Lying
1.6905292, -0.09421739, 9.707084,0.0071774554, 7.635591E-4, -0.0017561859,-0.06944358, -0.029313274, 0.057416916,Lying
1.6905292, -0.09421739, 9.766904,-0.0021379655, -0.0035123718, -0.0029778804,-0.07122731, -0.031953022, 0.114084244,Lying
1.7407784, -0.072681986, 9.822238,0.005955761, -0.0151184695, 0.0037414394,-0.02703607, -0.018828403, 0.16469955,Lying
1.8128623, -0.08703893, 9.793225,0.022143213, -0.022448637, 0.012904149,0.03425753, -0.045511845, 0.13303089,Lying
1.7865412, -0.08225328, 9.61137,0.05070032, -0.037108973, 0.015347538,-0.0012729168, -0.050548047, -0.045681953,Lying
1.7458632, -0.04875376, 9.4534445,0.0742943, -0.049325917, 0.0055739814,-0.04670179, -0.02075944, -0.1957798,Lying
1.8176479, -0.043968115, 9.460623,0.06123744, -0.04871507, 0.0012980504,0.022408962, -0.014903311, -0.18196106,Lying
1.8655044, -0.027218357, 9.549157,0.024586603, -0.033443887, 0.0061848285,0.068974614, 0.0038146675, -0.09045124,Lying
1.8343977, 0.008673982, 9.604192,-0.0021379655, -0.010231691, 0.004352287,0.039068937, 0.0417139, -0.03465748,Lying
1.8176479, -0.0056829536, 9.640084,-0.012064233, 0.0056503373, -0.005421269,0.024719, 0.03023587, 6.380081E-4,Lying
1.7817556, -0.04636094, 9.726226,-0.01885991, 0.013591352, -0.0041995747,-0.010125995, -0.008176152, 0.083810806,Lying
1.7721843, -0.0846461, 9.800404,-0.020768806, 0.017256435, 7.635591E-5,-0.022039294, -0.046950083, 0.15330982,Lying
1.7554345, -0.0846461, 9.702297,-0.010842538, 0.0038177953, -0.0011453386,-0.04105532, -0.04835357, 0.05396366,Lying
1.7721843, -0.034396827, 9.640084,0.010918895, -0.016340164, -5.344914E-4,-0.026475787, -5.4627657E-5, -0.0074567795,Lying
1.8607187, -0.032004002, 9.606585,0.017103724, -0.0193944, 0.004963134,0.05950141, 0.0011011362, -0.03951168,Lying
1.8535402, -0.015254244, 9.546764,0.012140589, -0.016340164, 0.0092390645,0.053610444, 0.019759668, -0.09661007,Lying
1.8942182, -0.027218357, 9.491729,0.006566608, -0.0029015245, 0.0012980504,0.10100353, 0.015249981, -0.14841843,Lying
1.9037895, -0.04636094, 9.446265,-0.015805673, 0.016645588, -0.011529742,0.123073936, 0.01094516, -0.19036198,Lying
1.910968, -0.015254244, 9.465408,-0.048104223, 0.05390727, -0.031687703,0.14750695, 0.062930144, -0.1693058,Lying
1.977967, 0.027816564, 9.403194,-0.08971819, 0.08872557, -0.050013117,0.23725843, 0.13087802, -0.22897816,Lying
1.8511474, -0.032004002, 9.6783695,-0.13629529, 0.11865708, -0.07933379,0.1357094, 0.094333895, 0.039912224,Lying
1.7359928, -0.16600206, 9.805189,-0.17607673, 0.16447063, -0.11476293,0.047976136, -0.017715082, 0.15661526,Lying
1.5804594, -0.18275183, 9.72144,-0.16179816, 0.1601947, -0.11903886,-0.07625568, -0.012246922, 0.065919876,Lying
1.5493526, -0.30029923, 9.800404,-0.1338519, 0.15408622, -0.11720632,-0.08401692, -0.10803522, 0.13704205,Lying
1.4153546, -0.2548356, 10.061521,-0.13255386, 0.15347537, -0.10071344,-0.20730543, -0.05689794, 0.3842106,Lying
1.2358929, -0.15164514, 10.004092,-0.10773818, 0.10949437, -0.08116633,-0.3803438, 0.04006818, 0.31684303,Lying
1.4799608, -0.34576288, 9.541979,-0.023899399, 0.019699825, -0.026190076,-0.1353972, -0.14815794, -0.13973331,Lying
1.5948163, -0.21415763, 9.489336,0.02893889, -0.035276428, 0.02817533,-0.017452717, -0.009902984, -0.18625546,Lying
1.6737795, -0.24526432, 9.632906,0.0022143214, -0.021226943, 0.031840414,0.059754133, -0.037177593, -0.041178703,Lying
1.5038891, -0.29790643, 10.049556,-0.029473381, 0.012369657, 0.020234315,-0.1162405, -0.09946492, 0.36424065,Lying
1.43689, -0.2883351, 10.056734,-0.0132859275, 0.0013744063, 0.0012980504,-0.19356596, -0.11394717, 0.3612852,Lying
1.2957134, -0.21655045, 10.1237335,0.070552856, -0.052991, 0.011071607,-0.35170698, -0.0799897, 0.4181795,Lying
1.4416757, -0.19501504, 10.051949,0.15630054, -0.09025268, 0.053830914,-0.23647273, -0.1046632, 0.3407278,Lying
1.7216359, -0.12053844, 9.75494,0.2339545, -0.15439165, 0.120413266,0.0027629137, -0.07784788, 0.04896927,Lying
1.9420747, -0.015254244, 9.489336,0.28801447, -0.20631365, 0.15339902,0.17988157, -0.016056577, -0.20324612,Lying
2.0377877, 0.07088737, 9.300303,0.28549474, -0.21486552, 0.12957597,0.24120677, 0.0367344, -0.3746214,Lying
2.0282164, 0.12831512, 9.060722,0.24510247, -0.19409671, 0.075821415,0.21340382, 0.07884546, -0.59155464,Lying
1.9612173, 0.14506488, 9.091828,0.17309885, -0.13728791, 0.022677705,0.14086425, 0.09712741, -0.5416565,Lying
1.9420747, 0.15702899, 9.355338,0.06436803, -0.057266932, -0.011529742,0.12172282, 0.11683401, -0.26984596,Lying
1.9468603, 0.08763713, 9.707084,-0.030084228, -0.0035123718, -0.023135839,0.12926364, 0.0529303, 0.07800865,Lying
1.8391833, -0.0056829536, 9.872487,-0.06795676, 0.022143213, -0.030466007,0.026216269, -0.038602196, 0.23407364,Lying
1.6618153, -0.012861421, 9.836595,-0.04688253, 0.03802524, -0.042072106,-0.1438744, -0.0469314, 0.19118214,Lying
1.6043876, -0.043968115, 9.7501545,-0.009544488, 0.029473381, -0.03657448,-0.19762456, -0.079077825, 0.10207176,Lying
1.6977077, -0.032004002, 9.685548,0.012827792, 0.011147963, -0.0096972,-0.10858929, -0.06996608, 0.037664413,Lying
1.8320048, 0.0038883367, 9.582657,0.022143213, -0.016340164, 0.0122933015,0.016053915, -0.037114903, -0.061478615,Lying
1.8918254, 0.06610172, 9.501301,0.029549737, -0.042606596, 0.0092390645,0.066826105, 0.024458855, -0.13688183,Lying
1.9013968, 0.10438689, 9.57787,0.020845164, -0.04688253, -0.010918895,0.07144129, 0.06214639, -0.057808876,Lying
1.8750757, 0.08763713, 9.728619,-0.005879405, -0.035887275, -0.026190076,0.044528484, 0.042427287, 0.08974838,Lying
1.8367904, 0.046959143, 9.709476,-0.01267508, -0.0132859275, -0.024357535,0.0072704554, -9.791963E-4, 0.06801796,Lying
1.8056837, 0.044566322, 9.6783695,0.005955761, 0.00503949, -0.010308048,-0.02269864, -0.006848708, 0.035614967,Lying
1.788934, 0.03260221, 9.6783695,0.014049487, 0.006872032, -0.0023670332,-0.041469097, -0.023207646, 0.03508663,Lying
1.8080766, 0.027816564, 9.620942,0.019623468, 0.0019852535, 7.635591E-5,-0.024675012, -0.03119064, -0.021011353,Lying
1.7554345, 0.01585245, 9.532407,0.027106347, -0.018172706, -0.0017561859,-0.07196379, -0.042477995, -0.10646629,Lying
1.7697915, 0.05892326, 9.649655,0.022143213, -0.016951011, -0.0023670332,-0.05377698, -1.7680973E-4, 0.010127068,Lying
1.8822541, 0.0637089, 9.668798,0.006566608, 0.015423893, 0.012904149,0.05423987, 0.002524685, 0.02880001,Lying
1.8631115, 0.10917253, 9.599406,0.0077883024, 0.010537115, 0.01901262,0.029928565, 0.04720783, -0.03852272,Lying
1.815255, 0.10199407, 9.498908,0.010918895, -0.013896775, 0.0019088977,-0.016545773, 0.04556387, -0.13463402,Lying
1.788934, 0.11395818, 9.522836,-0.005879405, -0.02183779, -0.007864659,-0.037413, 0.06664412, -0.10782814,Lying
1.8320048, 0.06610172, 9.601799,-0.038177952, 0.004428643, -0.0029778804,0.007970214, 0.028558362, -0.028377533,Lying
1.8774685, 0.07328019, 9.850952,-0.059252184, 0.022143213, 0.0055739814,0.050592303, 0.036899537, 0.2134533,Lying
1.9229321, -0.017647067, 9.915558,-0.056808796, 0.013591352, 0.0012980504,0.092250705, -0.060498074, 0.2689762,Lying
1.8487546, -0.034396827, 9.805189,-0.015194826, -0.005955761, -0.012140589,0.01256299, -0.085388005, 0.15453243,Lying
1.7865412, -0.0032901312, 9.64487,0.040163208, -0.0035123718, -0.025579229,-0.05356741, -0.061193466, -0.0045719147,Lying
1.7721843, -8.9730846E-4, 9.503694,0.05314371, -0.026724568, -0.028022617,-0.06818688, -0.058710583, -0.14047146,Lying
1.788934, 0.06610172, 9.305089,0.042606596, -0.030389652, -0.026800923,-0.045976758, 0.016586315, -0.32863426,Lying
1.829612, 0.09720842, 9.285947,0.0053449133, -0.013896775, -0.025579229,0.0030959845, 0.06281546, -0.3378229,Lying
1.8535402, 0.11156536, 9.565907,-0.051158458, 0.020310672, -0.023746688,0.033313155, 0.0906589, -0.05719185,Lying
1.8655044, 0.054137614, 9.822238,-0.09651387, 0.044744562, -0.02741177,0.047487974, 0.040525213, 0.19162846,Lying
1.8655044, -0.0056829536, 9.956236,-0.09345963, 0.039246935, -0.029244313,0.046271324, -0.019098815, 0.3147726,Lying
1.7985053, -0.012861421, 9.920343,-0.051845662, 0.020310672, -0.02985516,-0.023840308, -0.030619295, 0.2702875,Lying
1.7120646, -0.0080757765, 9.783653,-0.00335966, 0.0019852535, -0.02985516,-0.11382568, -0.031515196, 0.13078976,Lying
1.6881363, 0.0014955142, 9.618548,0.024586603, -0.020616096, -0.02069245,-0.1425476, -0.02684701, -0.03146267,Lying
1.7530417, 0.0134596275, 9.539586,0.033902023, -0.040774055, -0.0096972,-0.0853529, -0.0193434, -0.10485935,Lying
1.8391833, 0.03260221, 9.570692,0.03077143, -0.051158458, 7.635591E-5,-0.009223938, -0.005485665, -0.06934166,Lying
1.9013968, 0.07088737, 9.656834,0.027717194, -0.05482354, 0.0031305922,0.042018652, 0.025102329, 0.01808834,Lying
1.9205393, 0.037387855, 9.659226,0.027717194, -0.05482354, -0.0066429637,0.051574945, -0.0145546645, 0.02129364,Lying
1.8894325, 0.0134596275, 9.697512,0.033291176, -0.05054761, -0.015194826,0.012431622, -0.045440778, 0.059085846,Lying
1.8798612, 0.018245272, 9.776475,0.032069482, -0.0413849, -0.015805673,-0.006485224, -0.050901033, 0.13537216,Lying
1.8990039, 0.046959143, 9.719048,0.043217443, -0.040163208, -0.009086353,0.0010999441, -0.03533435, 0.07761383,Lying
1.9013968, 0.11395818, 9.565907,0.06314634, -0.05054761, -0.0017561859,-0.005527973, 0.020721518, -0.071240425,Lying
1.9061823, 0.14985052, 9.415159,0.07551599, -0.060932014, -0.0023670332,-0.004139662, 0.053143375, -0.21397209,Lying
1.9325033, 0.14506488, 9.386445,0.05314371, -0.04871507, -0.005421269,0.021833897, 0.05240918, -0.23474026,Lying
1.9133608, 0.11156536, 9.467801,0.0071774554, -0.018783553, -0.007864659,0.0061995983, 0.027165279, -0.14902687,Lying
1.9229321, 0.085244305, 9.620942,-0.03321482, 0.0019852535, -0.010918895,0.020185113, 0.0081786215, 0.0030164719,Lying
1.9564316, 0.037387855, 9.707084,-0.05054761, 0.019699825, -0.009086353,0.05696416, -0.035216108, 0.08520794,Lying
1.937289, 0.049351968, 9.707084,-0.04123219, 0.027029991, -0.0041995747,0.039939642, -0.020999558, 0.08168793,Lying
1.9061823, 0.054137614, 9.690333,-0.01885991, 0.027640838, -0.007864659,0.009469628, -0.014415152, 0.062568665,Lying
1.8631115, 0.06610172, 9.6783695,-0.010842538, 0.018478129, -0.013973131,-0.03378594, -0.0019674748, 0.04916191,Lying
1.7817556, 0.082851484, 9.692726,-0.011453386, 0.00503949, -0.023135839,-0.11465585, 0.0133836195, 0.062067986,Lying
1.8056837, 0.08045866, 9.683155,-0.0071010995, -0.0071774554, -0.024968382,-0.09191108, 0.0077868327, 0.051595688,Lying
1.9085752, 0.054137614, 9.62812,0.0028251687, -0.018172706, -0.010918895,0.0075614452, -0.02185794, -0.0027093887,Lying
1.9444675, 0.049351968, 9.570692,0.015882028, -0.023059484, 0.0019088977,0.040709972, -0.028477572, -0.0578804,Lying
1.937289, 0.07806584, 9.594621,0.022143213, -0.016951011, 0.0031305922,0.032438397, -6.126687E-4, -0.03280735,Lying
1.9253249, 0.092422776, 9.61137,0.014660334, -0.0071774554, -0.0011453386,0.02038014, 0.014168203, -0.015638351,Lying
1.8894325, 0.090029955, 9.690333,0.004123219, 1.5271181E-4, -0.0029778804,-0.015868664, 0.010418437, 0.06143093,Lying
1.8774685, 0.06849455, 9.769297,-0.006490252, 0.003206948, -0.008475506,-0.030225754, -0.017058276, 0.13646603,Lying
1.8631115, 0.03499503, 9.728619,0.003436016, -0.0047340663, -0.009086353,-0.048103094, -0.05896794, 0.093660355,Lying
1.8846469, 0.049351968, 9.632906,0.033291176, -0.018172706, -0.0060321167,-0.030565262, -0.052745394, -9.622574E-4,Lying
1.9229321, 0.10917253, 9.470194,0.05505261, -0.027335415, -5.344914E-4,0.0051652193, 0.0037864745, -0.1578083,Lying
1.9588244, 0.15702899, 9.372088,0.05314371, -0.026724568, 0.002519745,0.04165101, 0.055587858, -0.24788094,Lying
1.9420747, 0.14985052, 9.415159,0.016492875, -0.01267508, -0.0017561859,0.029352546, 0.05869098, -0.19913101,Lying
1.8966111, 0.12113664, 9.606585,-0.03321482, 0.010537115, -0.011529742,-0.0102136135, 0.039761536, -0.008514404,Lying
1.8942182, 0.05892326, 9.870094,-0.06795676, 0.028862532, -0.013973131,-0.0100444555, -0.020710886, 0.24590969,Lying
1.8966111, 0.011066805, 9.922736,-0.060550235, 0.029473381, -0.0066429637,-0.010387778, -0.07431461, 0.28928852,Lying
1.8607187, 0.054137614, 9.805189,-0.005879405, 0.01175881, -0.0011453386,-0.0516721, -0.041222453, 0.16772175,Lying
1.9037895, 0.06131608, 9.642477,0.044439137, -0.016340164, 0.0031305922,-0.015212059, -0.043065287, 0.006239891,Lying
1.9061823, 0.09960124, 9.506086,0.062459134, -0.03771982, 0.0104607595,-0.017961979, -0.010939203, -0.124700546,Lying
1.9037895, 0.15224335, 9.431909,0.057496, -0.03771982, 0.0098499125,-0.022785425, 0.039138243, -0.1916523,Lying
1.9301106, 0.14985052, 9.42473,0.03581092, -0.030389652, 0.0055739814,0.0035705566, 0.0386774, -0.19227028,Lying
1.966003, 0.13310076, 9.506086,0.0071774554, -0.016951011, 0.0031305922,0.040431738, 0.027021855, -0.107694626,Lying
1.9420747, 0.10438689, 9.70469,-0.017638214, 7.635591E-4, -0.0017561859,0.016088367, 0.0032747015, 0.08789921,Lying
1.9420747, 0.085244305, 9.812667,-0.03321482, 0.012369657, -0.0060321167,0.013692737, -0.015409887, 0.1894865,Lying
1.9588244, 0.09720842, 9.769297,-0.02817533, 7.635591E-4, -0.0060321167,0.026917458, -0.0063095614, 0.14204979,Lying
1.9492532, 0.10438689, 9.671191,-8.39915E-4, -0.010231691, -0.0060321167,0.012574911, -0.0029137507, 0.043312073,Lying
1.910968, 0.09720842, 9.558728,0.014049487, -0.013896775, -0.011529742,-0.028174043, -0.012271129, -0.06620979,Lying
1.8918254, 0.07088737, 9.460623,0.017790927, -0.023059484, -0.013973131,-0.04593849, -0.036315754, -0.15886211,Lying
1.8942182, 0.07328019, 9.463016,0.011529742, -0.018172706, -0.010918895,-0.03939438, -0.028524183, -0.15184307,Lying
1.9301106, 0.11395818, 9.561121,-0.006490252, -0.0010689828, -0.004810422,6.610155E-4, 0.016622022, -0.052754402,Lying
1.9492532, 0.13549358, 9.73819,-0.023212196, 0.014813046, 6.8720314E-4,0.020507574, 0.037986152, 0.119978905,Lying
1.951646, 0.092422776, 9.84138,-0.025731942, 0.022143213, 0.004352287,0.019606352, -0.009013034, 0.21604443,Lying
1.9205393, 0.06849455, 9.774082,-0.0051922016, 0.007482879, 0.0037414394,-0.015224457, -0.0388377, 0.14494228,Lying
1.8990039, 0.082851484, 9.666406,0.02145601, -0.013896775, -0.0041995747,-0.04065919, -0.03069117, 0.037075996,Lying
1.9492532, 0.11874382, 9.568299,0.037032615, -0.022448637, -0.0060321167,0.0057435036, -0.0010571629, -0.05825615,Lying
1.9995024, 0.11156536, 9.460623,0.038865156, -0.027946262, 0.0019088977,0.053292155, -0.010887802, -0.1602459,Lying
1.9683957, 0.13310076, 9.431909,0.033902023, -0.0193944, 0.002519745,0.023589253, 0.01269047, -0.18314362,Lying
1.9444675, 0.1378864, 9.5252285,0.015271181, -0.0047340663, -0.0035887277,0.0030421019, 0.02191078, -0.08752537,Lying
1.9325033, 0.13549358, 9.685548,-0.014507622, 0.01175881, -0.007253811,-0.007036686, 0.02190774, 0.070093155,Lying
1.9253249, 0.10677971, 9.728619,-0.028862532, 0.018478129, -0.0066429637,-0.01360321, -0.0059775263, 0.10937786,Lying
1.8846469, 0.082851484, 9.668798,-0.017638214, 0.008704574, -0.004810422,-0.052811265, -0.029417798, 0.04794407,Lying
1.8990039, 0.0948156, 9.623335,-0.003970507, 7.635591E-4, -0.0029778804,-0.03682506, -0.017409727, 0.0023117065,Lying
1.9420747, 0.08763713, 9.561121,0.003436016, -0.00167983, 0.0037414394,0.007078171, -0.022999339, -0.05815029,Lying
1.9731814, 0.14027923, 9.556335,0.0047340663, 0.0019852535, 0.0086282175,0.03796661, 0.03011632, -0.061065674,Lying
1.9947168, 0.14985052, 9.6376915,-0.00335966, 0.0056503373, 0.004352287,0.058369517, 0.03881094, 0.019481659,Lying
1.9683957, 0.12352947, 9.6783695,-0.008933641, 0.0056503373, -0.005421269,0.030811429, 0.011232458, 0.058216095,Lying
1.8966111, 0.11874382, 9.675977,-0.005879405, 0.004428643, -0.017027367,-0.040497065, 0.0052150786, 0.05414486,Lying
1.8678972, 0.082851484, 9.6783695,3.8177954E-4, -0.0010689828, -0.02069245,-0.06791341, -0.031872354, 0.054881096,Lying
1.9181465, 0.092422776, 9.64487,0.004123219, -0.0047340663, -0.007253811,-0.019046664, -0.024795793, 0.021092415,Lying
1.951646, 0.10677971, 9.556335,0.01343864, -0.0053449133, 0.006795676,0.013119936, -0.01207646, -0.065039635,Lying
1.9301106, 0.10917253, 9.513265,0.01901262, -0.010842538, 0.0061848285,-0.007115841, -0.008108109, -0.10475159,Lying
1.9348962, 0.12352947, 9.570692,0.010918895, -0.0047340663, 7.635591E-5,-4.3189526E-4, 0.009545185, -0.046125412,Lying
1.9540387, 0.13070793, 9.580264,-0.0071010995, 0.0056503373, -0.0011453386,0.020707607, 0.020576403, -0.03590679,Lying
1.9540387, 0.12113664, 9.6376915,-0.02015796, 0.009926268, -0.004810422,0.022287846, 0.014562711, 0.020332336,Lying
1.9301106, 0.08045866, 9.664013,-0.026342789, 0.014202199, -0.010918895,1.0752678E-4, -0.023241974, 0.044747353,Lying
1.8798612, 0.0948156, 9.659226,-0.023212196, 0.012369657, -0.008475506,-0.047467947, -0.008328192, 0.03841877,Lying
1.9061823, 0.09720842, 9.659226,-0.012064233, 0.009315421, -0.004810422,-0.020406961, -0.0063231587, 0.037139893,Lying
1.9253249, 0.082851484, 9.635299,-0.0015271181, 0.0056503373, -5.344914E-4,-0.0023026466, -0.020538688, 0.012983322,Lying
1.9229321, 0.07328019, 9.683155,0.003436016, 1.5271181E-4, 0.0012980504,-0.007523656, -0.03128437, 0.059458733,Lying
1.9588244, 0.07806584, 9.685548,0.0028251687, -0.005955761, -5.344914E-4,0.02458024, -0.030143239, 0.06041622,Lying
1.9468603, 0.10677971, 9.597013,0.011529742, -0.016340164, -0.0017561859,0.010108948, -0.0043100193, -0.02677536,Lying
1.937289, 0.14027923, 9.508479,0.023364907, -0.015729317, -0.007253811,8.8346004E-4, 0.029464364, -0.11159992,Lying
1.9253249, 0.14506488, 9.501301,0.014660334, -0.011453386, -0.007253811,-0.008120179, 0.037425183, -0.11539459,Lying
1.910968, 0.12831512, 9.589835,-0.0077119465, 0.0019852535, -0.004810422,-0.019253016, 0.023768663, -0.02645874,Lying
1.8894325, 0.090029955, 9.671191,-0.024510246, 0.014202199, -0.0041995747,-0.037970662, -0.012462862, 0.052796364,Lying
1.9013968, 0.07328019, 9.680762,-0.021379653, 0.013591352, -0.0029778804,-0.024562955, -0.027997628, 0.06017685,Lying
1.910968, 0.10438689, 9.685548,-0.008322794, 0.008093726, 0.0019088977,-0.015362263, 0.0017300919, 0.06298828,Lying
1.9564316, 0.085244305, 9.692726,-2.2906772E-4, 0.003206948, 0.0055739814,0.027032256, -0.019853704, 0.06828308,Lying
1.910968, 0.090029955, 9.640084,0.0077883024, -0.0047340663, 0.0037414394,-0.020600319, -0.017439991, 0.015677452,Lying
1.8870398, 0.10438689, 9.61137,0.015882028, -0.011453386, -0.0029778804,-0.04493797, -0.0054897964, -0.012209892,Lying
1.9301106, 0.11395818, 9.573085,0.015271181, -0.0151184695, -0.0023670332,-0.0024410486, 0.0025217384, -0.04868412,Lying
1.937289, 0.10917253, 9.51805,0.014660334, -0.010231691, 0.004352287,0.0056016445, -8.510947E-4, -0.1005106,Lying
1.9540387, 0.10199407, 9.527621,0.009086353, -0.0035123718, 0.0061848285,0.02431953, -0.0041780546, -0.08848667,Lying
1.966003, 0.11395818, 9.640084,-0.006490252, 0.0056503373, 0.004352287,0.03723395, 0.01053185, 0.022770882,Lying
1.9468603, 0.10199407, 9.664013,-0.02015796, 0.014813046, -0.0023670332,0.019296288, 8.377433E-4, 0.044766426,Lying
1.9013968, 0.09960124, 9.673584,-0.017638214, 0.01175881, -0.0060321167,-0.024065971, -2.6255846E-5, 0.052264214,Lying
1.9013968, 0.07806584, 9.668798,-0.0132859275, 0.009926268, -0.005421269,-0.023798704, -0.021690115, 0.046009064,Lying
1.9037895, 0.090029955, 9.664013,-0.008322794, 0.006872032, -0.0011453386,-0.023010612, -0.012046583, 0.040338516,Lying
1.8990039, 0.09720842, 9.608977,0.0047340663, -0.0029015245, 6.8720314E-4,-0.028860807, -0.0068325624, -0.0138139725,Lying
1.9061823, 0.12352947, 9.580264,0.014660334, -0.01267508, 6.8720314E-4,-0.021837592, 0.018239789, -0.04094124,Lying
1.9181465, 0.11874382, 9.575478,0.012140589, -0.010842538, 0.002519745,-0.009750724, 0.013978355, -0.044174194,Lying
1.9612173, 0.10917253, 9.541979,0.0047340663, -0.0047340663, 0.006795676,0.033708334, 0.0077522397, -0.07543373,Lying
1.9588244, 0.11874382, 9.541979,-0.003970507, -0.0010689828, 0.006795676,0.033205032, 0.0221093, -0.07356167,Lying
1.9277177, 0.10438689, 9.659226,-0.019547112, 0.008093726, -0.0017561859,0.004162669, 0.0104172155, 0.04183197,Lying
1.9157536, 0.056530435, 9.731011,-0.030695075, 0.016034741, -0.0066429637,-0.007634163, -0.03720963, 0.109892845,Lying
1.8726828, 0.056530435, 9.733404,-0.017027367, 0.01175881, -0.004810422,-0.05102372, -0.03982269, 0.10898018,Lying
1.8942182, 0.06610172, 9.666406,0.0053449133, -4.5813544E-4, -5.344914E-4,-0.032159448, -0.033457175, 0.041322708,Lying
1.9157536, 0.0948156, 9.57787,0.02145601, -0.010842538, 0.0019088977,-0.013029575, -0.006792225, -0.045104027,Lying
1.9564316, 0.10199407, 9.546764,0.023975754, -0.020005248, 0.004352287,0.026332617, -4.8480928E-5, -0.073599815,Lying
1.9612173, 0.10917253, 9.549157,0.012827792, -0.0151184695, 0.0031305922,0.031015754, 0.0074255913, -0.06902504,Lying
1.8846469, 0.13310076, 9.561121,0.001603474, -0.0022906773, -0.0035887277,-0.043267846, 0.0322301, -0.055335045,Lying
1.8990039, 0.12113664, 9.64487,-0.0045813546, 0.00503949, -0.008475506,-0.02736342, 0.020515993, 0.027384758,Lying
1.937289, 0.075673014, 9.719048,-0.010842538, 0.004428643, -0.0017561859,0.009376287, -0.026266858, 0.09847832,Lying
1.9157536, 0.0637089, 9.702297,-0.0045813546, 0.003206948, 0.002519745,-0.014638901, -0.040564954, 0.079610825,Lying
1.9181465, 0.082851484, 9.623335,0.011529742, -0.006566608, -5.344914E-4,-0.014825344, -0.023008987, 0.001209259,Lying
1.9564316, 0.10438689, 9.561121,0.019623468, -0.015729317, -5.344914E-4,0.021500945, -0.0017033741, -0.058758736,Lying
1.951646, 0.116351, 9.5348,0.012827792, -0.016340164, 6.8720314E-4,0.017416835, 0.0116996765, -0.08252907,Lying
1.9181465, 0.11156536, 9.51805,9.926268E-4, -0.006566608, -0.0029778804,-0.012526751, 0.0107439235, -0.096632004,Lying
1.910968, 0.11156536, 9.568299,-0.010842538, 0.006872032, -0.005421269,-0.016351342, 0.015036628, -0.045399666,Lying
1.937289, 0.08763713, 9.709476,-0.02260135, 0.016645588, -0.0017561859,0.010577083, -0.007762119, 0.09246349,Lying
1.9229321, 0.085244305, 9.766904,-0.025731942, 0.014813046, -0.0011453386,-0.0049625635, -0.013075143, 0.1452179,Lying
1.8774685, 0.08045866, 9.714262,-0.005879405, 0.00503949, -0.0060321167,-0.051198244, -0.02175542, 0.08999729,Lying
1.8846469, 0.08045866, 9.613763,0.016492875, -0.0071774554, -0.0066429637,-0.045654297, -0.024159245, -0.00954628,Lying
1.9420747, 0.0948156, 9.546764,0.024586603, -0.0132859275, 7.635591E-5,0.009538412, -0.010099858, -0.07364559,Lying
1.9564316, 0.14506488, 9.532407,0.017790927, -0.016951011, 0.0031305922,0.023800254, 0.040564477, -0.08523464,Lying
1.9731814, 0.12831512, 9.541979,0.003436016, -0.010231691, 7.635591E-5,0.041686773, 0.02616831, -0.07366848,Lying
1.9325033, 0.10677971, 9.635299,-0.009544488, 0.0038177953, -5.344914E-4,0.0031038523, 0.006059788, 0.018597603,Lying
1.8966111, 0.06610172, 9.711869,-0.017638214, 0.013591352, -0.0017561859,-0.03224516, -0.034727976, 0.0921545,Lying
1.87029, 0.07088737, 9.723833,-0.009544488, 0.01175881, -0.0041995747,-0.059175253, -0.032387078, 0.101202965,Lying
1.9253249, 0.08045866, 9.659226,0.006566608, -0.0029015245, -0.0011453386,-0.006518841, -0.025336958, 0.035889626,Lying
1.9755741, 0.10438689, 9.549157,0.019623468, -0.013896775, 0.0037414394,0.04155171, -0.0017065927, -0.071611404,Lying
1.966003, 0.11156536, 9.515657,0.018401774, -0.013896775, 0.0019088977,0.03206539, 0.007636629, -0.10188103,Lying
1.9396819, 0.09960124, 9.553943,9.926268E-4, -0.004123219, -0.004810422,0.007472396, -8.950308E-4, -0.061879158,Lying
1.9157536, 0.09720842, 9.625728,-0.014507622, 0.0062611843, -0.008475506,-0.014438748, -9.070635E-4, 0.0092897415,Lying
1.8990039, 0.09720842, 9.719048,-0.019547112, 0.010537115, -0.007253811,-0.03058064, -0.0017123967, 0.0993309,Lying
1.910968, 0.08763713, 9.747761,-0.0132859275, 0.008093726, -0.0041995747,-0.020198107, -0.015014194, 0.12427807,Lying
1.9181465, 0.092422776, 9.680762,0.0047340663, -0.0022906773, 6.8720314E-4,-0.01557076, -0.014691383, 0.055987358,Lying
1.937289, 0.085244305, 9.604192,0.02275406, -0.012064233, 0.0012980504,4.8220158E-4, -0.024860531, -0.019294739,Lying
1.9540387, 0.10199407, 9.537193,0.0264955, -0.016340164, 6.8720314E-4,0.0151439905, -0.009073272, -0.08313084,Lying
1.9468603, 0.12113664, 9.5348,0.019623468, -0.016340164, -0.0035887277,0.00806725, 0.010588288, -0.08275986,Lying
1.9444675, 0.13070793, 9.58505,0.0053449133, -0.008399149, -0.007253811,0.0068531036, 0.0211071, -0.03169632,Lying
1.9420747, 0.10438689, 9.623335,-0.005879405, 0.0019852535, -0.0060321167,0.0058971643, -0.0035760999, 0.006052017,Lying
1.9277177, 0.10438689, 9.632906,-0.009544488, 0.007482879, -0.0035887277,-0.006823778, -0.0017075688, 0.014813423,Lying
1.9253249, 0.092422776, 9.613763,-0.008322794, 0.008704574, -0.0011453386,-0.007323861, -0.010723852, -0.0045404434,Lying
1.9301106, 0.092422776, 9.616156,-0.009544488, 0.007482879, 7.635591E-5,-0.0013006926, -0.00782042, -0.0023326874,Lying
1.9301106, 0.07328019, 9.623335,-0.013896775, 0.008704574, -0.0011453386,-4.3714046E-4, -0.024297751, 0.004504204,Lying
1.8942182, 0.085244305, 9.666406,-0.015194826, 0.0062611843, -0.0060321167,-0.035327196, -0.012046464, 0.046051025,Lying
1.9013968, 0.08763713, 9.707084,-0.011453386, 0.004428643, -0.008475506,-0.028964639, -0.012274742, 0.084243774,Lying
1.9325033, 0.10199407, 9.671191,-2.2906772E-4, -0.0010689828, -0.004810422,-1.1909008E-4, -0.0016963035, 0.04720211,Lying
1.9420747, 0.10438689, 9.625728,0.015882028, -0.009620844, -0.0011453386,0.007720828, -0.0024290532, 0.0019769669,Lying
1.9205393, 0.12113664, 9.589835,0.020234315, -0.012064233, -5.344914E-4,-0.014230013, 0.011905201, -0.03260708,Lying
1.9013968, 0.14267205, 9.539586,0.016492875, -0.0077883024, -0.0023670332,-0.03246665, 0.03256791, -0.08008289,Lying
1.9325033, 0.12352947, 9.541979,0.010308048, -0.0047340663, -0.0017561859,-9.303093E-4, 0.015218727, -0.07519817,Lying
1.9540387, 0.0948156, 9.601799,-0.0015271181, -0.0010689828, -0.0011453386,0.020415187, -0.010808565, -0.014957428,Lying
1.9564316, 0.085244305, 9.690333,-0.0132859275, 0.0019852535, -0.004810422,0.022752523, -0.019291475, 0.071024895,Lying
1.9492532, 0.08045866, 9.683155,-0.013896775, 0.0025961008, -0.007864659,0.015635967, -0.023748904, 0.061603546,Lying
1.9205393, 0.10438689, 9.623335,-0.00335966, 0.0038177953, -0.005421269,-0.012522697, 4.8380345E-4, 0.0016613007,Lying
1.9013968, 0.11395818, 9.608977,0.0022143214, 0.003206948, -0.0017561859,-0.031041741, 0.009887174, -0.012196541,Lying
1.9229321, 0.10199407, 9.613763,-0.0015271181, 7.635591E-4, 6.8720314E-4,-0.009480715, -0.0024619922, -0.007095337,Lying
1.9085752, 0.10677971, 9.61137,-8.39915E-4, -0.0022906773, 7.635591E-5,-0.023244739, 0.001981154, -0.009131432,Lying
1.9205393, 0.10199407, 9.613763,0.001603474, -0.00167983, -0.0041995747,-0.010537744, -0.0029361546, -0.006583214,Lying
1.9325033, 0.10917253, 9.625728,9.926268E-4, -0.0010689828, -0.0023670332,0.0021904707, 0.004017718, 0.0050468445,Lying
1.937289, 0.10677971, 9.618548,9.926268E-4, 0.0019852535, -0.0011453386,0.0073298216, 0.0023674592, -0.0021896362,Lying
1.9253249, 0.09960124, 9.594621,3.8177954E-4, 0.004428643, -5.344914E-4,-0.0034586191, -0.0025641918, -0.025486946,Lying
1.9181465, 0.09720842, 9.623335,-0.0045813546, 0.003206948, -0.0011453386,-0.009153247, -0.0029314682, 0.0028867722,Lying
1.9133608, 0.116351, 9.675977,-0.011453386, 0.0056503373, 7.635591E-5,-0.012563109, 0.015207157, 0.053528786,Lying
1.9229321, 0.08763713, 9.623335,-0.009544488, 0.0062611843, 0.0031305922,-0.002523899, -0.013792217, 7.6293945E-4,Lying
1.9013968, 0.08045866, 9.589835,0.0028251687, 0.00503949, 0.0012980504,-0.023350239, -0.01954408, -0.031653404,Lying
1.9013968, 0.08045866, 9.620942,0.003436016, 0.0019852535, -0.0023670332,-0.022880316, -0.01798106, -4.5967102E-4,Lying
1.9229321, 0.08763713, 9.64487,-0.0045813546, -4.5813544E-4, -0.0029778804,-0.0014916658, -0.009982787, 0.022734642,Lying
1.9444675, 0.10677971, 9.632906,-0.0051922016, -0.00167983, -0.0011453386,0.020077348, 0.009524927, 0.010260582,Lying
1.9564316, 0.10438689, 9.601799,-0.0021379655, -0.0010689828, 0.0019088977,0.032571554, 0.0078291, -0.020496368,Lying
1.9061823, 0.10917253, 9.616156,-0.00335966, 0.0038177953, 0.0012980504,-0.016190648, 0.012996957, -0.006119728,Lying
1.8894325, 0.08763713, 9.6376915,-0.005879405, 0.008704574, -0.0035887277,-0.031600595, -0.007942639, 0.014860153,Lying
1.8990039, 0.08045866, 9.64487,-0.0051922016, 0.00503949, -0.0041995747,-0.021378994, -0.014663048, 0.021326065,Lying
1.9085752, 0.0948156, 9.666406,-0.0021379655, 0.0013744063, -0.0017561859,-0.012166023, -0.0012605339, 0.041604042,Lying
1.9181465, 0.10438689, 9.666406,3.8177954E-4, -4.5813544E-4, 6.8720314E-4,-0.0038182735, 0.0055916905, 0.040504456,Lying
1.9277177, 0.0948156, 9.601799,0.0053449133, -0.004123219, 7.635591E-5,0.0046987534, -0.0054137185, -0.023142815,Lying
1.9181465, 0.09720842, 9.57787,0.01343864, -0.0071774554, 7.635591E-5,-0.004805088, -0.0031658486, -0.045492172,Lying
1.9157536, 0.09960124, 9.601799,0.008475506, -0.0047340663, -5.344914E-4,-0.0067169666, -4.945472E-4, -0.020885468,Lying
1.9229321, 0.10199407, 9.582657,0.001603474, -4.5813544E-4, 0.0012980504,0.0013613701, 0.0033353418, -0.03889942,Lying
1.9181465, 0.10438689, 9.606585,-8.39915E-4, 0.0013744063, 0.002519745,-0.0020656586, 0.006901659, -0.014722824,Lying
1.9348962, 0.07806584, 9.680762,-0.0077119465, 0.00503949, 0.002519745,0.01445353, -0.019824207, 0.057471275,Lying
1.9085752, 0.082851484, 9.690333,-0.0071010995, 0.006872032, 0.0019088977,-0.013242841, -0.017275043, 0.06519222,Lying
1.8942182, 0.07328019, 9.632906,0.0053449133, 0.0013744063, -0.0017561859,-0.028672695, -0.028040804, 0.007896423,Lying
1.9348962, 0.085244305, 9.575478,0.014660334, -0.009620844, -0.0017561859,0.01142931, -0.015303403, -0.047873497,Lying
1.9396819, 0.10438689, 9.546764,0.011529742, -0.010842538, 6.8720314E-4,0.016822934, 0.006018363, -0.074300766,Lying
1.8966111, 0.12831512, 9.568299,-0.0015271181, -0.0010689828, -0.0011453386,-0.0234766, 0.03175366, -0.05140686,Lying
1.9061823, 0.12592229, 9.640084,-0.0132859275, 0.0062611843, -0.0035887277,-0.012189984, 0.029970594, 0.019471169,Lying
1.9229321, 0.082851484, 9.70469,-0.015194826, 0.010537115, 6.8720314E-4,0.0032182932, -0.013859838, 0.08155918,Lying
1.9085752, 0.05174479, 9.731011,-0.008322794, 0.006872032, 0.0019088977,-0.013980746, -0.046926655, 0.104971886,Lying
1.9085752, 0.054137614, 9.656834,0.005955761, -0.006566608, -0.0023670332,-0.016615868, -0.045926906, 0.030380249,Lying
1.9181465, 0.08763713, 9.568299,0.018401774, -0.017561859, -0.0023670332,-0.008568406, -0.012356199, -0.055905342,Lying
1.951646, 0.11395818, 9.546764,0.015882028, -0.016951011, 6.8720314E-4,0.024258494, 0.014698043, -0.074910164,Lying
1.951646, 0.11156536, 9.55155,0.0022143214, -0.009620844, 0.0012980504,0.024714112, 0.013262518, -0.06805229,Lying
1.9085752, 0.09720842, 9.64487,-0.0071010995, 7.635591E-4, -0.0029778804,-0.017174244, -0.0010129809, 0.024354935,Lying
1.8846469, 0.075673014, 9.685548,-0.008933641, 0.006872032, -0.007253811,-0.040833592, -0.023504607, 0.063121796,Lying
1.8726828, 0.082851484, 9.683155,-0.0015271181, 0.003206948, -0.0060321167,-0.053256392, -0.018112913, 0.059170723,Lying
1.9229321, 0.09720842, 9.649655,0.009086353, -0.005955761, -0.0011453386,-0.0052005053, -0.0058209226, 0.02528572,Lying
1.9420747, 0.10199407, 9.57787,0.01343864, -0.012064233, 0.0031305922,0.012403846, -0.0013327748, -0.044763565,Lying
1.9540387, 0.090029955, 9.546764,0.012140589, -0.01267508, 6.8720314E-4,0.024042487, -0.011651114, -0.07346821,Lying
1.9181465, 0.10917253, 9.606585,9.926268E-4, -0.005955761, -0.0041995747,-0.010666847, 0.007936165, -0.01333046,Lying
1.9181465, 0.10917253, 9.625728,-0.0077119465, 0.0025961008, -0.005421269,-0.009619594, 0.008196421, 0.0054836273,Lying
1.910968, 0.10199407, 9.623335,-0.003970507, 0.004428643, -0.0011453386,-0.015550017, 0.0017319247, 0.002840042,Lying
1.910968, 0.082851484, 9.659226,-0.0027488125, 0.0038177953, 6.8720314E-4,-0.015674591, -0.017176136, 0.037592888,Lying
1.910968, 0.085244305, 9.6783695,-0.003970507, 0.0038177953, 6.8720314E-4,-0.017130971, -0.016257755, 0.055272102,Lying
1.9061823, 0.0948156, 9.649655,0.001603474, -0.0035123718, -0.0011453386,-0.02350688, -0.009018563, 0.026148796,Lying
1.937289, 0.0948156, 9.587442,0.010308048, -0.010842538, -0.0023670332,0.0063836575, -0.010166056, -0.03468132,Lying
1.951646, 0.10677971, 9.565907,0.014049487, -0.01267508, 7.635591E-5,0.02020061, 0.0020902008, -0.05438614,Lying
1.9492532, 0.11156536, 9.539586,0.0077883024, -0.0053449133, -5.344914E-4,0.018586874, 0.008968994, -0.07833099,Lying
1.9085752, 0.10199407, 9.604192,-0.0027488125, 7.635591E-4, -0.0041995747,-0.019675016, 0.0023198798, -0.013605118,Lying
1.910968, 0.082851484, 9.668798,-0.013896775, 0.007482879, -0.0060321167,-0.015899658, -0.015565082, 0.049164772,Lying
1.9157536, 0.092422776, 9.714262,-0.01641652, 0.009315421, -0.0023670332,-0.011720777, -0.007554412, 0.091711044,Lying
1.9061823, 0.08763713, 9.649655,-0.003970507, 0.004428643, -5.344914E-4,-0.022459388, -0.013923883, 0.026563644,Lying
1.9037895, 0.08763713, 9.587442,0.0096972, -0.0053449133, 7.635591E-5,-0.025562644, -0.014091425, -0.034176826,Lying
1.9277177, 0.10199407, 9.582657,0.010918895, -0.010231691, 7.635591E-5,-0.0022079945, 3.369078E-4, -0.037539482,Lying
1.9444675, 0.09960124, 9.599406,0.003436016, -0.008399149, 7.635591E-5,0.014435649, -0.0014830232, -0.020168304,Lying
1.9564316, 0.10438689, 9.61137,-8.39915E-4, -0.0035123718, -0.0023670332,0.026452184, 0.003722936, -0.008115768,Lying
1.9037895, 0.092422776, 9.647263,-0.003970507, 0.0019852535, -0.0060321167,-0.024759412, -0.008104235, 0.026752472,Lying
1.9133608, 0.090029955, 9.652048,-0.003970507, 0.00503949, -0.005421269,-0.015323281, -0.010757543, 0.030626297,Lying
1.9157536, 0.08045866, 9.625728,3.8177954E-4, 0.003206948, -0.0017561859,-0.013479114, -0.019811705, 0.00434494,Lying
1.9277177, 0.092422776, 9.606585,0.003436016, -0.0035123718, 6.8720314E-4,-0.0015436411, -0.0071220323, -0.0143013,Lying
1.9253249, 0.092422776, 9.601799,9.926268E-4, -0.0053449133, 6.8720314E-4,-0.0035562515, -0.0063358024, -0.018510818,Lying
1.9277177, 0.0948156, 9.623335,-0.0027488125, -4.5813544E-4, -0.0011453386,-8.6963177E-4, -0.004008949, 0.0028867722,Lying
1.9325033, 0.0948156, 9.625728,-0.00335966, 0.0013744063, -0.0017561859,0.003930211, -0.00407394, 0.005077362,Lying
1.9205393, 0.090029955, 9.616156,3.8177954E-4, 0.0013744063, -0.0035887277,-0.007631302, -0.008176006, -0.00438118,Lying
1.910968, 0.10677971, 9.664013,3.8177954E-4, 7.635591E-4, -0.0035887277,-0.017501116, 0.007982932, 0.042227745,Lying
1.9396819, 0.0637089, 9.661619,-0.0027488125, 7.635591E-4, -0.0029778804,0.009770393, -0.036202952, 0.038747787,Lying
1.9037895, 0.07806584, 9.632906,0.001603474, -0.0047340663, -5.344914E-4,-0.026911736, -0.023464277, 0.0100393295,Lying
1.8870398, 0.12831512, 9.575478,0.011529742, -0.005955761, -0.0041995747,-0.043195844, 0.025308818, -0.045636177,Lying
1.937289, 0.13070793, 9.520443,0.012140589, -0.009009997, -0.0035887277,0.00776124, 0.029414363, -0.09755516,Lying
1.9683957, 0.0948156, 9.537193,0.003436016, -0.0053449133, 6.8720314E-4,0.039961457, -0.0015130863, -0.07862663,Lying
1.9492532, 0.05892326, 9.618548,-0.014507622, 0.00503949, -5.344914E-4,0.021927357, -0.032046117, 0.0022764206,Lying
1.9253249, 0.07806584, 9.757333,-0.026953636, 0.012980504, -0.0041995747,-0.002699852, -0.01259505, 0.13658237,Lying
1.9468603, 0.042173497, 9.783653,-0.023212196, 0.009926268, -0.0029778804,0.015357733, -0.052007653, 0.15810966,Lying
1.9229321, 0.07088737, 9.652048,3.8177954E-4, -0.004123219, -0.0017561859,-0.011269569, -0.027305506, 0.02619934,Lying
1.8846469, 0.11156536, 9.549157,0.0264955, -0.015729317, -0.007864659,-0.049787402, 0.011251189, -0.073797226,Lying
1.9301106, 0.10438689, 9.520443,0.024586603, -0.016340164, -0.008475506,-0.004454255, 0.0038489252, -0.099048615,Lying
1.9325033, 0.11874382, 9.558728,0.008475506, -0.010231691, -0.0041995747,-0.0012859106, 0.018089026, -0.058864594,Lying
1.9205393, 0.11156536, 9.589835,-8.39915E-4, -0.00167983, -0.0066429637,-0.011002541, 0.011749454, -0.027194023,Lying
1.9253249, 0.116351, 9.62812,-0.003970507, 0.0038177953, -0.0066429637,-0.003751874, 0.018031009, 0.010269165,Lying
1.9325033, 0.09960124, 9.673584,-0.0071010995, 0.009926268, -0.0023670332,0.0037938356, 0.0024827346, 0.053788185,Lying
1.9325033, 0.06610172, 9.699904,-0.011453386, 0.012369657, -0.0011453386,0.0025840998, -0.031241685, 0.07768345,Lying
1.8990039, 0.07328019, 9.695119,-0.0077119465, 0.0025961008, -0.0041995747,-0.032108784, -0.026611015, 0.070941925,Lying
1.9061823, 0.09720842, 9.6376915,0.005955761, -0.005955761, -0.0041995747,-0.026638508, -0.0062532425, 0.013584137,Lying
1.937289, 0.09720842, 9.565907,0.018401774, -0.012064233, 7.635591E-5,0.0024762154, -0.00828436, -0.05589962,Lying
1.937289, 0.11395818, 9.544372,0.020234315, -0.013896775, 6.8720314E-4,0.0014333725, 0.008222088, -0.0746727,Lying
1.9492532, 0.11395818, 9.587442,0.010918895, -0.010231691, -0.0066429637,0.0129954815, 0.008634716, -0.03054142,Lying
1.9492532, 0.11156536, 9.630513,-0.0021379655, -0.0053449133, -0.0096972,0.01359427, 0.0065585896, 0.011919975,Lying
1.9420747, 0.11156536, 9.6376915,-0.0051922016, 1.5271181E-4, -0.007253811,0.0072290897, 0.0066617057, 0.01825428,Lying
1.9325033, 0.09720842, 9.647263,-0.00335966, 0.0056503373, -0.0023670332,-0.0021264553, -0.007985331, 0.02687931,Lying
1.910968, 0.082851484, 9.6376915,-0.0021379655, 0.0056503373, -0.0017561859,-0.023296595, -0.0228694, 0.016823769,Lying
1.8990039, 0.08763713, 9.589835,0.0022143214, 7.635591E-4, -0.0035887277,-0.034174442, -0.017632686, -0.030004501,Lying
1.9061823, 0.11395818, 9.575478,0.005955761, -0.0022906773, -0.004810422,-0.025511146, 0.009708524, -0.043021202,Lying
1.9348962, 0.12592229, 9.616156,3.8177954E-4, -4.5813544E-4, -0.0023670332,0.0040290356, 0.022094272, -0.0024404526,Lying
1.96361, 0.12113664, 9.652048,-0.0071010995, 0.003206948, 7.635591E-5,0.03247881, 0.01696159, 0.032190323,Lying
1.9253249, 0.0948156, 9.659226,-0.006490252, 0.00503949, -0.0011453386,-0.00582695, -0.0098954365, 0.038107872,Lying
1.9013968, 0.090029955, 9.664013,-0.0021379655, 0.004428643, -0.0041995747,-0.029755235, -0.0156195685, 0.041677475,Lying
1.910968, 0.10438689, 9.625728,0.004123219, -0.0010689828, -0.0023670332,-0.02060008, -0.002480507, 0.0034923553,Lying
1.9301106, 0.10677971, 9.58505,0.0077883024, -0.0053449133, 7.635591E-5,-0.0013740063, -2.8385222E-4, -0.03596878,Lying
1.9301106, 0.12352947, 9.558728,0.0071774554, -0.005955761, 0.0012980504,-7.534027E-5, 0.01785773, -0.060498238,Lying
1.9348962, 0.10917253, 9.546764,9.926268E-4, 1.5271181E-4, -5.344914E-4,0.007369399, 0.007349454, -0.07066059,Lying
1.9420747, 0.09720842, 9.616156,-0.010842538, 0.006872032, -0.0011453386,0.01644063, -0.0010823905, -0.001701355,Lying
1.9420747, 0.075673014, 9.7501545,-0.0219905, 0.015423893, -0.0011453386,0.01614976, -0.022707142, 0.12791348,Lying
1.910968, 0.07088737, 9.726226,-0.019547112, 0.012980504, -0.004810422,-0.015340447, -0.02941008, 0.100709915,Lying
1.8894325, 0.085244305, 9.61137,0.003436016, 0.0013744063, -0.005421269,-0.03619516, -0.015903033, -0.0136117935,Lying
1.8966111, 0.10199407, 9.565907,0.015271181, -0.0047340663, -0.0011453386,-0.029026031, 0.0011029392, -0.056936264,Lying
1.8894325, 0.1594218, 9.592228,0.0077883024, -0.0029015245, 0.0019088977,-0.035432935, 0.057517283, -0.029504776,Lying
1.9205393, 0.13310076, 9.55155,-0.0015271181, -0.0053449133, 7.635591E-5,-0.0023684502, 0.033000924, -0.06825352,Lying
1.9683957, 0.092422776, 9.601799,-0.003970507, -0.0022906773, 0.004963134,0.046585917, -0.004127063, -0.01793003,Lying
1.966003, 0.049351968, 9.709476,-0.014507622, 0.009926268, 0.0055739814,0.043198466, -0.045458183, 0.086714745,Lying
1.9253249, 0.027816564, 9.72144,-0.018249061, 0.014202199, -5.344914E-4,0.0012279749, -0.06775696, 0.09566212,Lying
1.8894325, 0.06849455, 9.652048,-0.0021379655, 0.0025961008, -0.005421269,-0.03561294, -0.028576449, 0.025801659,Lying
1.8870398, 0.11156536, 9.565907,0.014660334, -0.006566608, -0.008475506,-0.03838551, 0.01399304, -0.058044434,Lying
1.9253249, 0.12831512, 9.561121,0.012140589, -0.011453386, -0.005421269,-3.7801266E-4, 0.030822538, -0.060689926,Lying
1.9277177, 0.12592229, 9.570692,-2.2906772E-4, -0.009009997, -0.0023670332,0.0029853582, 0.029165857, -0.04963398,Lying
1.8990039, 0.0948156, 9.592228,-0.0071010995, -0.00167983, -0.005421269,-0.022629619, 4.934743E-4, -0.027626038,Lying
1.9277177, 0.08763713, 9.6376915,-0.010231691, 0.0056503373, -0.004810422,0.008041739, -0.0047828555, 0.016822815,Lying
1.9229321, 0.09960124, 9.6783695,-0.0132859275, 0.012369657, -0.0011453386,0.003620267, 0.0072259232, 0.05550766,Lying
1.8846469, 0.07088737, 9.687941,-0.009544488, 0.01175881, -0.0017561859,-0.03472793, -0.021847442, 0.0631628,Lying
1.8774685, 0.039780676, 9.661619,-0.0021379655, 0.0025961008, -0.0029778804,-0.042945504, -0.05269987, 0.03610134,Lying
1.8846469, 0.08045866, 9.642477,0.0053449133, -0.006566608, -0.0023670332,-0.036676645, -0.013506494, 0.016822815,Lying
1.9492532, 0.09960124, 9.549157,0.008475506, -0.0132859275, 0.0012980504,0.02693975, 0.005142227, -0.07397461,Lying
1.9803598, 0.11395818, 9.530014,0.011529742, -0.011453386, 0.0055739814,0.05772066, 0.020224214, -0.090353966,Lying
1.937289, 0.090029955, 9.597013,0.0022143214, -4.5813544E-4, 0.002519745,0.016293645, -0.0025415868, -0.022982597,Lying
1.8750757, 0.07088737, 9.666406,-0.008322794, 0.008704574, -0.0041995747,-0.044392943, -0.020898014, 0.044891357,Lying
1.8750757, 0.08045866, 9.723833,-0.0071010995, 0.01175881, -0.0066429637,-0.04501021, -0.012438543, 0.099372864,Lying
1.9253249, 0.075673014, 9.675977,-8.39915E-4, 1.5271181E-4, -0.0023670332,0.0031051636, -0.01850991, 0.05018902,Lying
1.9348962, 0.092422776, 9.587442,0.008475506, -0.011453386, 0.0012980504,0.0117281675, -0.0022781044, -0.03700161,Lying
1.9492532, 0.0948156, 9.527621,0.010308048, -0.010842538, 6.8720314E-4,0.026144624, 0.0019781962, -0.093829155,Lying
1.9396819, 0.09720842, 9.522836,0.0028251687, -0.0029015245, -0.0017561859,0.01872468, 0.0076130554, -0.09590244,Lying
1.9133608, 0.10438689, 9.623335,-0.010842538, 0.00503949, -0.0029778804,-0.0048719645, 0.016554058, 0.0039777756,Lying
1.8774685, 0.090029955, 9.692726,-0.019547112, 0.014813046, -0.004810422,-0.039063573, 0.0029146, 0.07088089,Lying
1.8798612, 0.07806584, 9.728619,-0.0132859275, 0.013591352, -0.004810422,-0.037210703, -0.010112859, 0.10359573,Lying
1.9061823, 0.044566322, 9.70469,-0.0045813546, 0.0019852535, -0.0011453386,-0.0136168, -0.04589533, 0.07765198,Lying
1.910968, 0.06849455, 9.616156,0.0077883024, -0.009620844, 0.0019088977,-0.011527181, -0.024261802, -0.009940147,Lying
1.9301106, 0.090029955, 9.539586,0.020845164, -0.016951011, 0.002519745,0.0066143274, -0.0034832433, -0.083506584,Lying
1.9540387, 0.10438689, 9.530014,0.017103724, -0.016340164, 0.002519745,0.030795097, 0.011659265, -0.090242386,Lying
1.9181465, 0.10917253, 9.556335,0.0047340663, -0.004123219, 7.635591E-5,-0.002796054, 0.018853918, -0.06223488,Lying
1.9277177, 0.092422776, 9.630513,-0.0071010995, 0.006872032, -0.0041995747,0.008477569, 0.00459294, 0.011175156,Lying
1.9085752, 0.06131608, 9.728619,-0.017027367, 0.01175881, -0.0041995747,-0.01018095, -0.025890619, 0.105662346,Lying
1.8990039, 0.046959143, 9.72144,-0.014507622, 0.010537115, -0.0023670332,-0.021417022, -0.04135985, 0.09568119,Lying
1.9085752, 0.06610172, 9.6783695,9.926268E-4, 7.635591E-4, -0.0017561859,-0.014325738, -0.024868295, 0.051442146,Lying
1.9396819, 0.08763713, 9.582657,0.01343864, -0.01267508, 7.635591E-5,0.014478207, -0.0055893213, -0.042469025,Lying
1.9325033, 0.092422776, 9.532407,0.01901262, -0.015729317, 0.0019088977,0.006634712, -9.2823803E-4, -0.08956814,Lying
1.8822541, 0.13310076, 9.558728,0.012827792, -0.009620844, -0.0011453386,-0.04160738, 0.040013656, -0.06125641,Lying
1.9037895, 0.12352947, 9.580264,3.8177954E-4, -0.0022906773, -0.0023670332,-0.017698646, 0.032486714, -0.038752556,Lying
1.9396819, 0.085244305, 9.642477,-0.008322794, 0.003206948, 0.0012980504,0.018637061, -0.0032840297, 0.022482872,Lying
1.937289, 0.054137614, 9.73819,-0.01641652, 0.009315421, 0.0019088977,0.014058113, -0.034683578, 0.11464596,Lying
1.9205393, 0.030209387, 9.719048,-0.0132859275, 0.0056503373, -0.0023670332,-0.0055960417, -0.06074968, 0.0929451,Lying
1.9277177, 0.05892326, 9.620942,0.0071774554, -0.009009997, -0.0029778804,-8.9502335E-4, -0.033785477, -0.0045251846,Lying
1.937289, 0.09720842, 9.541979,0.022143213, -0.016340164, -0.0011453386,0.0076390505, 0.004101984, -0.08059311,Lying
1.9277177, 0.10438689, 9.575478,0.015271181, -0.0132859275, -0.0011453386,-0.0017286539, 0.010891534, -0.04553604,Lying
1.9181465, 0.10677971, 9.625728,9.926268E-4, -0.004123219, -0.0023670332,-0.011338472, 0.011511616, 0.004676819,Lying
1.9037895, 0.0948156, 9.613763,-8.39915E-4, 7.635591E-4, -0.004810422,-0.025149226, -0.0013450757, -0.0069799423,Lying
1.9037895, 0.09960124, 9.635299,0.005955761, -0.0022906773, -0.0066429637,-0.024622798, 0.0029459894, 0.0141477585,Lying
1.9325033, 0.10438689, 9.656834,0.004123219, -0.00167983, -0.0041995747,0.0031034946, 0.006119676, 0.03469181,Lying
1.9277177, 0.090029955, 9.640084,0.0022143214, -0.00167983, 6.8720314E-4,-0.0028233528, -0.009665623, 0.01759243,Lying
1.9277177, 0.07088737, 9.613763,0.0071774554, -0.0047340663, -0.0011453386,-0.0039253235, -0.02896399, -0.008199692,Lying
1.9253249, 0.08045866, 9.599406,0.008475506, -0.006566608, -0.0041995747,-0.006525278, -0.019258052, -0.021723747,Lying
1.9229321, 0.12592229, 9.620942,0.0053449133, -0.006566608, -0.0035887277,-0.008929133, 0.024770193, -1.02996826E-4,Lying
1.9277177, 0.09720842, 9.599406,0.0022143214, -0.0022906773, -0.0029778804,-0.0040858984, -0.0034140944, -0.020916939,Lying
1.9277177, 0.090029955, 9.573085,0.0028251687, -0.00167983, -0.0017561859,-0.0031372309, -0.008083016, -0.045862198,Lying
1.9301106, 0.08763713, 9.599406,-0.0027488125, -4.5813544E-4, -0.0023670332,6.477833E-4, -0.0076740608, -0.01917553,Lying
1.9396819, 0.08763713, 9.664013,-0.01267508, 0.004428643, -0.0041995747,0.010801196, -0.0067338273, 0.043759346,Lying
1.951646, 0.06610172, 9.668798,-0.013896775, 0.007482879, -0.0023670332,0.022600532, -0.028670624, 0.046824455,Lying
1.9181465, 0.08045866, 9.642477,-0.003970507, 0.00503949, -0.0011453386,-0.011075616, -0.015705116, 0.019929886,Lying
1.8990039, 0.08763713, 9.661619,0.006566608, 0.003206948, -0.0035887277,-0.03152871, -0.010773003, 0.03826809,Lying
1.8846469, 0.09720842, 9.620942,0.009086353, -0.0029015245, -0.0060321167,-0.04678774, -0.002807781, -0.0018463135,Lying
1.910968, 0.116351, 9.568299,0.012827792, -0.01267508, -0.005421269,-0.020749688, 0.016280383, -0.0525074,Lying
1.9540387, 0.13310076, 9.568299,0.008475506, -0.0132859275, -0.0029778804,0.02251637, 0.03343851, -0.05095768,Lying
1.966003, 0.10438689, 9.592228,-0.0027488125, -0.0053449133, -5.344914E-4,0.035710335, 0.006258838, -0.02660942,Lying
1.9348962, 0.08763713, 9.606585,-0.008322794, 0.00503949, -5.344914E-4,0.0066981316, -0.008147933, -0.012310028,Lying
1.9061823, 0.06849455, 9.659226,-0.010231691, 0.012980504, -0.0041995747,-0.02037561, -0.025659844, 0.038823128,Lying
1.8846469, 0.08045866, 9.709476,-0.012064233, 0.012369657, -0.005421269,-0.041950703, -0.014431521, 0.08642578,Lying
1.9133608, 0.08045866, 9.692726,-0.0045813546, 0.00503949, -0.0029778804,-0.015322089, -0.016850658, 0.06788349,Lying
1.9277177, 0.08763713, 9.61137,0.006566608, -0.0077883024, 7.635591E-5,-0.0029075146, -0.011951223, -0.012640953,Lying
1.9540387, 0.10677971, 9.544372,0.015882028, -0.013896775, 7.635591E-5,0.022678614, 0.0069672167, -0.07702732,Lying
1.9540387, 0.11874382, 9.506086,0.014049487, -0.010842538, -0.0011453386,0.023857117, 0.02112662, -0.111904144,Lying
1.9229321, 0.10677971, 9.575478,-8.39915E-4, 1.5271181E-4, -0.0041995747,-0.0043079853, 0.012305766, -0.041639328,Lying
1.9037895, 0.09720842, 9.6783695,-0.017027367, 0.010537115, -0.007864659,-0.0211972, 0.0042090565, 0.05895233,Lying
1.8894325, 0.09960124, 9.731011,-0.020768806, 0.014813046, -0.009086353,-0.034580827, 0.005636394, 0.10794926,Lying
1.9061823, 0.0637089, 9.675977,-0.009544488, 0.008093726, -0.004810422,-0.018664122, -0.030944549, 0.051426888,Lying
1.9085752, 0.10199407, 9.666406,0.0047340663, -0.0010689828, 0.0031305922,-0.018165588, 0.003917493, 0.040973663,Lying
1.9277177, 0.085244305, 9.589835,0.010308048, -0.0077883024, 0.0055739814,-5.8496E-4, -0.014837936, -0.034114838,Lying
1.9301106, 0.075673014, 9.520443,0.018401774, -0.0132859275, 0.004352287,0.0014472008, -0.022822924, -0.100040436,Lying
1.9492532, 0.05892326, 9.563514,0.01343864, -0.008399149, 6.8720314E-4,0.020622015, -0.036031447, -0.05521202,Lying
1.9755741, 0.075673014, 9.618548,-0.0051922016, -0.00167983, -0.004810422,0.04677093, -0.016671374, -4.377365E-4,Lying
1.9253249, 0.10199407, 9.661619,-0.013896775, 0.0038177953, -0.008475506,-0.002128601, 0.010776699, 0.04096794,Lying
1.910968, 0.11395818, 9.687941,-0.01267508, 0.007482879, -0.0096972,-0.016142488, 0.022037841, 0.06509876,Lying
1.8918254, 0.10917253, 9.702297,-0.008933641, 0.006872032, -0.005421269,-0.035770178, 0.014499731, 0.07716751,Lying
1.9013968, 0.08045866, 9.632906,-2.2906772E-4, -0.0010689828, 7.635591E-5,-0.02719307, -0.016542539, 0.007884026,Lying
1.9181465, 0.090029955, 9.587442,0.012140589, -0.009009997, 0.0012980504,-0.011400342, -0.008409172, -0.03606987,Lying
1.937289, 0.092422776, 9.582657,0.015271181, -0.010231691, 7.635591E-5,0.006635785, -0.0072147623, -0.039310455,Lying
1.9301106, 0.0948156, 9.62812,0.009086353, -0.0071774554, -5.344914E-4,-0.0016021729, -0.0066480413, 0.00620842,Lying
1.9301106, 0.092422776, 9.62812,0.006566608, -0.0047340663, -0.005421269,-0.0029605627, -0.010434985, 0.0063028336,Lying
1.9301106, 0.08763713, 9.589835,0.009086353, -0.005955761, -0.009086353,-0.002719283, -0.015141524, -0.030961037,Lying
1.9301106, 0.10917253, 9.608977,0.0077883024, -0.0077883024, -0.007253811,-0.0012667179, 0.006921172, -0.011695862,Lying
1.9157536, 0.15463616, 9.613763,0.001603474, 7.635591E-4, -0.0035887277,-0.013531327, 0.051843457, -0.007006645,Lying
1.9061823, 0.13549358, 9.575478,-0.003970507, 0.007482879, 7.635591E-5,-0.02019751, 0.034302883, -0.044260025,Lying
1.8966111, 0.116351, 9.568299,-0.005879405, 0.008704574, 0.0031305922,-0.026414871, 0.0193208, -0.050248146,Lying
1.9013968, 0.075673014, 9.656834,-0.014507622, 0.01175881, 0.0012980504,-0.019659996, -0.017353699, 0.036774635,Lying
1.9277177, 0.054137614, 9.726226,-0.025731942, 0.012980504, -5.344914E-4,0.0068012476, -0.037921652, 0.10259724,Lying
1.9612173, 0.039780676, 9.683155,-0.017638214, 0.006872032, 0.002519745,0.03955078, -0.05219818, 0.05742073,Lying
1.9492532, 0.049351968, 9.589835,0.0028251687, 0.0019852535, 0.0055739814,0.027807951, -0.041534916, -0.03497696,Lying
1.9037895, 0.08763713, 9.546764,0.0096972, 0.003206948, 0.0031305922,-0.016382813, -0.0016827285, -0.07562351,Lying
1.8583258, 0.12113664, 9.61137,9.926268E-4, 0.0062611843, -0.0041995747,-0.060777903, 0.03196086, -0.010434151,Lying
1.8774685, 0.116351, 9.707084,-0.009544488, 0.0038177953, -0.008475506,-0.042330384, 0.02479694, 0.08291817,Lying
1.9133608, 0.09960124, 9.697512,-0.0077119465, -0.0053449133, -0.0060321167,-0.007971287, 0.004640743, 0.07127857,Lying
1.9229321, 0.092422776, 9.608977,0.0077883024, -0.011453386, -0.0011453386,0.001008749, -0.004385613, -0.016598701,Lying
1.9540387, 0.082851484, 9.558728,0.017790927, -0.009620844, 0.0031305922,0.03208661, -0.01328969, -0.06485176,Lying
1.9325033, 0.082851484, 9.527621,0.011529742, -0.0029015245, 0.004963134,0.011891842, -0.010435753, -0.09313965,Lying
1.8942182, 0.085244305, 9.57787,-8.39915E-4, 0.0056503373, 0.0012980504,-0.024166107, -0.004660666, -0.04173565,Lying
1.8822541, 0.09960124, 9.690333,-0.013896775, 0.009315421, -0.0035887277,-0.035238504, 0.010020725, 0.068481445,Lying
1.9181465, 0.07328019, 9.757333,-0.017638214, 0.007482879, -0.0029778804,-0.0016653538, -0.019508764, 0.13149643,Lying
1.9085752, 0.07328019, 9.683155,-0.003970507, -0.00167983, -0.0023670332,-0.0138629675, -0.023192048, 0.0560112,Lying
1.9301106, 0.085244305, 9.561121,0.020234315, -0.01267508, -0.0011453386,0.006546378, -0.012369044, -0.063694954,Lying
1.977967, 0.0948156, 9.510872,0.024586603, -0.016340164, 0.004352287,0.054092526, -0.0013783649, -0.11048031,Lying
1.9277177, 0.12592229, 9.568299,0.0096972, -0.0047340663, 0.006795676,0.0049551725, 0.030645072, -0.05152607,Lying
1.8870398, 0.116351, 9.618548,-0.0077119465, 0.008093726, -0.0023670332,-0.033851385, 0.021711104, -0.0013618469,Lying
1.8894325, 0.10677971, 9.671191,-0.012064233, 0.006872032, -0.008475506,-0.030384779, 0.0124594495, 0.049585342,Lying
1.9181465, 0.06849455, 9.702297,-0.008322794, 0.0038177953, -0.004810422,-0.0026940107, -0.025798485, 0.07824516,Lying
1.9253249, 0.06131608, 9.695119,-0.003970507, 1.5271181E-4, 7.635591E-5,0.0023524761, -0.034283645, 0.069114685,Lying
1.9540387, 0.085244305, 9.601799,0.0047340663, -0.005955761, 0.0012980504,0.028622627, -0.011263989, -0.023150444,Lying
1.9444675, 0.11156536, 9.556335,0.01343864, -0.010842538, 0.0012980504,0.018331409, 0.015028663, -0.066337585,Lying
1.9205393, 0.10199407, 9.549157,0.006566608, -0.0077883024, -0.0017561859,-0.0042768717, 0.0068868995, -0.07131481,Lying
1.8894325, 0.085244305, 9.606585,-0.00335966, -4.5813544E-4, -0.0041995747,-0.033077836, -0.0074061602, -0.013643265,Lying
1.9061823, 0.06610172, 9.64487,-0.009544488, 0.0062611843, -0.0035887277,-0.015526295, -0.024762169, 0.023781776,Lying
1.9205393, 0.092422776, 9.73819,-0.012064233, 0.0062611843, -0.0017561859,-0.0029916763, -0.0014459863, 0.113648415,Lying
1.9133608, 0.082851484, 9.731011,-0.0051922016, 0.0013744063, -0.0011453386,-0.013935924, -0.016322821, 0.10379505,Lying
1.9013968, 0.092422776, 9.649655,0.015882028, -0.010231691, -0.0017561859,-0.029482007, -0.012259766, 0.02259922,Lying
1.9253249, 0.0948156, 9.565907,0.03077143, -0.022448637, -0.0011453386,-0.008565903, -0.013050348, -0.058470726,Lying
1.9612173, 0.10917253, 9.4941225,0.031458635, -0.024281178, 7.635591E-5,0.025794983, 0.0016610175, -0.12582588,Lying
1.9325033, 0.13549358, 9.508479,0.01901262, -0.017561859, -0.0011453386,-8.032322E-4, 0.030355364, -0.10819054,Lying
1.9420747, 0.12592229, 9.58505,-0.0027488125, -0.0035123718, -0.0029778804,0.0116279125, 0.023491167, -0.031196594,Lying
1.9229321, 0.09720842, 9.666406,-0.018249061, 0.011147963, -0.0011453386,-0.0056886673, -0.0032233149, 0.048192024,Lying
1.9085752, 0.05892326, 9.716655,-0.01885991, 0.017256435, -0.0011453386,-0.019805789, -0.04102505, 0.09528065,Lying
1.910968, 0.06610172, 9.728619,-0.010231691, 0.008704574, -5.344914E-4,-0.019373417, -0.035705388, 0.10421753,Lying
1.9181465, 0.08763713, 9.64487,0.0047340663, -0.0022906773, -5.344914E-4,-0.014438033, -0.016700596, 0.020308495,Lying
1.9444675, 0.11395818, 9.546764,0.016492875, -0.013896775, 6.8720314E-4,0.010747075, 0.008954696, -0.075099945,Lying
1.9588244, 0.116351, 9.510872,0.016492875, -0.014507622, 7.635591E-5,0.025756717, 0.013244323, -0.10763264,Lying
1.9564316, 0.10917253, 9.561121,0.001603474, -0.004123219, -0.0017561859,0.024624944, 0.008768529, -0.055885315,Lying
1.9205393, 0.10199407, 9.671191,-0.0132859275, 0.008093726, -0.0041995747,-0.00987649, 0.0022414401, 0.052220345,Lying
1.8966111, 0.09720842, 9.73819,-0.017027367, 0.011147963, -0.005421269,-0.03355825, -0.004907362, 0.11548042,Lying
1.9013968, 0.10917253, 9.680762,-0.0045813546, 0.0056503373, -0.0035887277,-0.02990985, 0.004448436, 0.05653572,Lying
1.9205393, 0.09960124, 9.592228,0.01343864, -0.0047340663, 7.635591E-5,-0.012157083, -0.0057470202, -0.03061676,Lying
1.9444675, 0.09960124, 9.568299,0.01343864, -0.011453386, 0.0019088977,0.010419726, -0.005096264, -0.052549362,Lying
1.937289, 0.10677971, 9.587442,0.004123219, -0.009620844, -0.0011453386,0.0033848286, 0.002588898, -0.03234005,Lying
1.9229321, 0.09720842, 9.616156,-0.00335966, -0.0053449133, -0.0041995747,-0.009919763, -0.006614715, -0.0036325455,Lying
1.9253249, 0.116351, 9.664013,-0.003970507, 0.0013744063, -0.0041995747,-0.0071469545, 0.011396296, 0.042757034,Lying
1.9325033, 0.09720842, 9.652048,-8.39915E-4, 0.0038177953, -5.344914E-4,-3.9172173E-4, -0.008515939, 0.029857635,Lying
1.9325033, 0.092422776, 9.613763,0.0047340663, 7.635591E-4, 0.0037414394,-0.0010203123, -0.013332665, -0.008033752,Lying
1.9157536, 0.092422776, 9.608977,0.005955761, -0.0022906773, 0.0019088977,-0.018383026, -0.013178252, -0.012151718,Lying
1.9229321, 0.090029955, 9.623335,0.0022143214, -0.0035123718, -0.0017561859,-0.011911273, -0.015932754, 0.002366066,Lying
1.9348962, 0.092422776, 9.594621,9.926268E-4, -0.006566608, -0.0029778804,-2.4604797E-4, -0.013513245, -0.025418282,Lying
1.9205393, 0.12352947, 9.613763,0.004123219, -0.005955761, -0.0035887277,-0.014548421, 0.017003402, -0.005970955,Lying
1.9229321, 0.13549358, 9.613763,0.001603474, -0.00167983, -0.0035887277,-0.011399388, 0.028327353, -0.0058460236,Lying
1.9492532, 0.12352947, 9.599406,3.8177954E-4, -0.0022906773, 0.0012980504,0.015354753, 0.017198801, -0.019737244,Lying
1.951646, 0.08763713, 9.606585,-8.39915E-4, 0.0019852535, 0.004352287,0.01763928, -0.016563386, -0.012248993,Lying
1.9229321, 0.05892326, 9.656834,-0.0077119465, 0.00503949, -5.344914E-4,-0.011467099, -0.043459766, 0.036906242,Lying
1.9253249, 0.06849455, 9.685548,-0.009544488, 0.0025961008, -0.0060321167,-0.010524988, -0.034631416, 0.06382084,Lying
1.9301106, 0.090029955, 9.656834,-0.0027488125, -0.004123219, -0.004810422,-0.0076369047, -0.014821649, 0.034366608,Lying
1.9420747, 0.11156536, 9.589835,0.0096972, -0.009620844, -0.0029778804,0.0032104254, 0.005846992, -0.03137493,Lying
1.9325033, 0.12592229, 9.594621,0.011529742, -0.011453386, -0.0017561859,-0.006235361, 0.019247599, -0.025680542,Lying
1.937289, 0.09960124, 9.597013,0.003436016, -0.0053449133, -5.344914E-4,-0.001252532, -0.0075715557, -0.02253151,Lying
1.910968, 0.10917253, 9.582657,9.926268E-4, -4.5813544E-4, -0.0029778804,-0.026190758, 0.002305679, -0.0357666,Lying
1.9085752, 0.116351, 9.601799,0.0028251687, 7.635591E-4, -0.005421269,-0.02727127, 0.01019606, -0.016144753,Lying
1.9420747, 0.10438689, 9.668798,-0.0027488125, 0.0025961008, -0.0035887277,0.0051785707, -0.0022769645, 0.049373627,Lying
1.9468603, 0.075673014, 9.649655,-0.005879405, 0.0019852535, -0.0011453386,0.008444309, -0.030941963, 0.029463768,Lying
1.937289, 0.082851484, 9.608977,0.0022143214, -0.0047340663, -0.0041995747,-0.0015127659, -0.022986174, -0.010775566,Lying
1.9396819, 0.11156536, 9.620942,0.004123219, -0.006566608, -0.0060321167,9.871721E-4, 0.005146913, 0.0011320114,Lying
1.9444675, 0.12352947, 9.625728,-2.2906772E-4, -0.0022906773, -0.0017561859,0.00572443, 0.015576243, 0.0057048798,Lying
1.9181465, 0.09720842, 9.563514,0.0022143214, 7.635591E-4, 7.635591E-5,-0.01933372, -0.009488039, -0.054784775,Lying
1.910968, 0.092422776, 9.573085,0.0047340663, 7.635591E-4, -0.0029778804,-0.024930835, -0.011527762, -0.043868065,Lying
1.9396819, 0.10199407, 9.680762,-0.005879405, 0.003206948, -0.0041995747,0.003145337, -0.0015186295, 0.061840057,Lying
1.9564316, 0.082851484, 9.692726,-0.0132859275, 0.0038177953, -0.0041995747,0.018714309, -0.021995634, 0.07147789,Lying
1.937289, 0.085244305, 9.642477,-0.0027488125, -0.0029015245, -0.0035887277,-6.182194E-4, -0.020690225, 0.020553589,Lying
1.937289, 0.10199407, 9.582657,0.010308048, -0.0029015245, -0.0035887277,-9.008646E-4, -0.004340008, -0.037921906,Lying
1.9253249, 0.10677971, 9.563514,0.009086353, -0.0010689828, -0.0023670332,-0.01252389, 0.0010502189, -0.05516243,Lying
1.9301106, 0.11395818, 9.592228,0.0022143214, -0.00167983, -0.0035887277,-0.006782651, 0.0090958625, -0.025705338,Lying
1.9253249, 0.12352947, 9.616156,-0.003970507, -4.5813544E-4, -0.0029778804,-0.0102671385, 0.01873406, -0.0018978119,Lying
1.937289, 0.116351, 9.661619,-0.006490252, 0.0038177953, -0.0011453386,0.0016777515, 0.010514133, 0.0421381,Lying
1.9301106, 0.10199407, 9.675977,-0.003970507, 0.00503949, -0.0011453386,-0.0064035654, -0.005190924, 0.054854393,Lying
1.9181465, 0.092422776, 9.62812,0.0028251687, 1.5271181E-4, -0.0035887277,-0.018847942, -0.015223227, 0.006969452,Lying
1.9229321, 0.090029955, 9.608977,0.0071774554, -0.005955761, -0.0041995747,-0.014347792, -0.0173214, -0.011622429,Lying
1.937289, 0.10917253, 9.597013,0.0047340663, -0.005955761, -0.0023670332,-6.914139E-5, 0.001660943, -0.022788048,Lying
1.9492532, 0.116351, 9.597013,0.001603474, -0.004123219, 7.635591E-5,0.012316465, 0.008802824, -0.022194862,Lying
1.9301106, 0.116351, 9.604192,3.8177954E-4, -4.5813544E-4, -0.0011453386,-0.0055737495, 0.009103939, -0.014726639,Lying
1.9277177, 0.0948156, 9.620942,-0.0021379655, 0.004428643, -0.0035887277,-0.0070033073, -0.0109576285, 0.0018110275,Lying
1.9205393, 0.09720842, 9.649655,-0.003970507, 0.0056503373, -0.0035887277,-0.013572693, -0.007638581, 0.029486656,Lying
1.9229321, 0.09720842, 9.673584,-0.006490252, 0.0038177953, -0.0029778804,-0.012004852, -0.008422881, 0.051898956,Lying
1.9277177, 0.09720842, 9.656834,-0.003970507, 7.635591E-4, -0.0023670332,-0.008289337, -0.010157071, 0.03425598,Lying
1.9492532, 0.092422776, 9.589835,0.0053449133, -0.006566608, -0.0017561859,0.012511134, -0.015758052, -0.03161049,Lying
1.9229321, 0.12352947, 9.570692,0.010918895, -0.0071774554, -5.344914E-4,-0.013558507, 0.014607795, -0.049028397,Lying
1.9205393, 0.13549358, 9.58505,0.006566608, -0.00167983, -0.0029778804,-0.014614105, 0.026603483, -0.033680916,Lying
1.9420747, 0.11156536, 9.568299,9.926268E-4, -0.0010689828, -0.0017561859,0.0085167885, 0.005549416, -0.049157143,Lying
1.9277177, 0.0948156, 9.62812,-0.0051922016, 0.004428643, -0.0011453386,-0.004507065, -0.008087054, 0.0100803375,Lying
1.9277177, 0.06849455, 9.70469,-0.017027367, 0.009926268, -0.0035887277,-0.004662633, -0.033315435, 0.08386326,Lying
1.9325033, 0.07328019, 9.719048,-0.015805673, 0.0062611843, -0.0035887277,-0.0015178919, -0.03065513, 0.09531689,Lying
1.951646, 0.0948156, 9.671191,-2.2906772E-4, -0.00167983, -0.0023670332,0.014631867, -0.012881659, 0.046383858,Lying
1.9157536, 0.11395818, 9.575478,0.015882028, -0.009009997, -0.004810422,-0.021987796, 0.0043655187, -0.04743004,Lying
1.8894325, 0.12113664, 9.522836,0.020845164, -0.0132859275, -0.007253811,-0.046240807, 0.012663901, -0.09687424,Lying
1.9253249, 0.11395818, 9.556335,0.008475506, -0.0077883024, -0.0041995747,-0.008954167, 0.0075483024, -0.061476707,Lying
1.951646, 0.116351, 9.616156,-0.008322794, 0.0025961008, -5.344914E-4,0.018507242, 0.010841042, -0.0019273758,Lying
1.9396819, 0.09960124, 9.62812,-0.01267508, 0.0056503373, -0.0017561859,0.008133411, -0.0044454113, 0.009331703,Lying
1.9133608, 0.09960124, 9.64487,-0.0077119465, 0.009315421, -0.004810422,-0.016789436, -0.0031369328, 0.025045395,Lying
1.9085752, 0.085244305, 9.697512,-0.0077119465, 0.009926268, -0.0035887277,-0.02194953, -0.018003158, 0.075354576,Lying
1.9253249, 0.0637089, 9.687941,-0.006490252, 0.004428643, -5.344914E-4,-0.007447481, -0.041018233, 0.06410408,Lying
1.9085752, 0.10917253, 9.61137,0.005955761, -0.005955761, 7.635591E-5,-0.025274038, 0.0019188002, -0.011685371,Lying
1.9492532, 0.11156536, 9.556335,0.015271181, -0.0132859275, 7.635591E-5,0.014496684, 0.0035163835, -0.06443405,Lying
1.9588244, 0.10917253, 9.515657,0.01343864, -0.010231691, 0.0012980504,0.024540901, 0.0030431822, -0.10190582,Lying
1.9061823, 0.10677971, 9.582657,0.0028251687, -0.0022906773, -0.0035887277,-0.026263952, 0.003513053, -0.03392601,Lying
1.9085752, 0.090029955, 9.687941,-0.01267508, 0.006872032, -0.0096972,-0.02316165, -0.012075126, 0.06904411,Lying
1.9325033, 0.090029955, 9.711869,-0.017027367, 0.00503949, -0.0060321167,-2.2733212E-4, -0.01318866, 0.09009838,Lying
1.9540387, 0.090029955, 9.649655,-0.003970507, -4.5813544E-4, 7.635591E-5,0.020191431, -0.0144909695, 0.027025223,Lying
1.9301106, 0.0948156, 9.606585,0.008475506, -0.0053449133, 6.8720314E-4,-0.004038453, -0.010281317, -0.0154390335,Lying
1.9037895, 0.10199407, 9.568299,0.009086353, -0.0022906773, -0.0023670332,-0.029554248, -0.00283207, -0.051917076,Lying
1.9013968, 0.11395818, 9.582657,0.004123219, -0.0022906773, -0.0041995747,-0.030968547, 0.0097450465, -0.03629303,Lying
1.9420747, 0.12113664, 9.620942,-0.0015271181, -0.0010689828, -0.0029778804,0.009768486, 0.017138474, 0.0018644333,Lying
1.9468603, 0.11156536, 9.62812,-0.0051922016, -4.5813544E-4, -0.0011453386,0.014657497, 0.008063003, 0.0086193085,Lying
1.9277177, 0.0948156, 9.635299,-0.0045813546, 0.0019852535, -0.0017561859,-0.003983617, -0.0079705715, 0.0151968,Lying
1.9229321, 0.07088737, 9.661619,-0.0045813546, 0.003206948, -0.0023670332,-0.009234905, -0.031955294, 0.040309906,Lying
1.910968, 0.08763713, 9.649655,-0.0027488125, 0.0019852535, -0.0017561859,-0.021924376, -0.016795889, 0.027703285,Lying
1.9229321, 0.08763713, 9.61137,0.005955761, -0.004123219, -5.344914E-4,-0.010712266, -0.01779735, -0.010011673,Lying
1.9396819, 0.116351, 9.556335,0.011529742, -0.0077883024, 7.635591E-5,0.005648017, 0.011025146, -0.06287289,Lying
1.9420747, 0.116351, 9.568299,0.008475506, -0.005955761, -5.344914E-4,0.008474112, 0.012386203, -0.049365997,Lying
1.9420747, 0.09720842, 9.599406,-0.0027488125, -0.0010689828, -0.0011453386,0.009337425, -0.00481271, -0.0178833,Lying
1.9181465, 0.090029955, 9.652048,-0.010231691, 0.0038177953, -0.0035887277,-0.013419509, -0.010842346, 0.03347969,Lying
1.9229321, 0.082851484, 9.666406,-0.010231691, 0.0062611843, -0.0035887277,-0.008430004, -0.017624065, 0.04626751,Lying
1.937289, 0.08045866, 9.635299,-0.0045813546, 0.0038177953, -0.0023670332,0.0056512356, -0.019573577, 0.014659882,Lying
1.9157536, 0.092422776, 9.608977,9.926268E-4, -4.5813544E-4, -5.344914E-4,-0.015782237, -0.0075261146, -0.011200905,Lying
1.8966111, 0.1378864, 9.606585,9.926268E-4, -4.5813544E-4, -0.0011453386,-0.034300685, 0.036337905, -0.013031006,Lying
1.9181465, 0.12831512, 9.594621,3.8177954E-4, -0.0022906773, -0.0029778804,-0.012857676, 0.026168995, -0.024065018,Lying
1.9396819, 0.092422776, 9.618548,0.001603474, -0.0029015245, -0.0017561859,0.007651329, -0.009298809, 2.9563904E-5,Lying
1.9229321, 0.07328019, 9.654441,-0.0021379655, -0.0029015245, -0.0023670332,-0.010113955, -0.028201774, 0.035014153,Lying
1.9277177, 0.06610172, 9.635299,-0.0015271181, -0.004123219, -0.0041995747,-0.0061290264, -0.03447345, 0.015532494,Lying
1.966003, 0.09720842, 9.563514,0.003436016, -0.0071774554, -0.0017561859,0.03168869, -0.0012157932, -0.054553032,Lying
1.9492532, 0.12352947, 9.55155,0.001603474, -0.0053449133, 6.8720314E-4,0.016356826, 0.028073512, -0.0647316,Lying
1.9253249, 0.09960124, 9.608977,-0.011453386, 0.003206948, -0.0017561859,-0.005290389, 0.006200142, -0.007461548,Lying
1.8942182, 0.082851484, 9.702297,-0.021379653, 0.010537115, -0.0029778804,-0.03550279, -0.01110781, 0.083114624,Lying
1.8822541, 0.0637089, 9.685548,-0.0132859275, 0.011147963, -0.0060321167,-0.047985315, -0.032150947, 0.06459236,Lying
1.8990039, 0.092422776, 9.659226,0.004123219, -0.00167983, -0.0041995747,-0.03306222, -0.0065250695, 0.037592888,Lying
1.9564316, 0.10199407, 9.62812,0.015882028, -0.011453386, 7.635591E-5,0.020938754, -1.0701269E-4, 0.006816864,Lying
1.9564316, 0.10438689, 9.561121,0.017790927, -0.015729317, 6.8720314E-4,0.019160151, 0.0013773218, -0.057985306,Lying
1.9468603, 0.092422776, 9.515657,0.015882028, -0.014507622, -0.0041995747,0.010296226, -0.0082400665, -0.10025215,Lying
1.9396819, 0.12113664, 9.604192,0.003436016, -0.005955761, -0.005421269,0.0047067404, 0.02130609, -0.011637688,Lying
1.9396819, 0.10917253, 9.673584,-0.011453386, 0.0056503373, -0.0023670332,0.0051344633, 0.008439295, 0.0557518,Lying
1.9229321, 0.08045866, 9.659226,-0.008322794, 0.009315421, -5.344914E-4,-0.011875749, -0.020810485, 0.04014969,Lying
1.9061823, 0.07088737, 9.62812,0.0028251687, 0.003206948, -0.0017561859,-0.02887547, -0.030253358, 0.008975029,Lying
1.9157536, 0.090029955, 9.630513,0.005955761, -0.0035123718, -0.0029778804,-0.02029717, -0.011383183, 0.01132679,Lying
1.9540387, 0.09720842, 9.601799,0.004123219, -0.006566608, -0.0035887277,0.016768932, -0.0044643283, -0.016691208,Lying
1.9396819, 0.10677971, 9.553943,0.0028251687, -0.009009997, -0.0035887277,0.003690362, 0.0061479136, -0.06270695,Lying
1.9444675, 0.09960124, 9.549157,0.001603474, -0.0035123718, -0.0029778804,0.011013389, 0.001748383, -0.06584072,Lying
1.9253249, 0.10199407, 9.642477,-0.0071010995, 0.007482879, -0.0023670332,-0.006274104, 0.005211726, 0.02627945,Lying
1.9157536, 0.085244305, 9.695119,-0.015805673, 0.015423893, -0.0035887277,-0.015957952, -0.011972398, 0.07645321,Lying
1.8870398, 0.08763713, 9.6783695,-0.0077119465, 0.008704574, -0.005421269,-0.044729948, -0.0108869895, 0.05803013,Lying
1.9133608, 0.08763713, 9.664013,0.003436016, -0.0035123718, -0.004810422,-0.020095706, -0.012923695, 0.042699814,Lying
1.9181465, 0.10199407, 9.616156,0.008475506, -0.008399149, -0.0023670332,-0.017548203, -0.0019802824, -0.0044202805,Lying
1.9468603, 0.0948156, 9.568299,0.012827792, -0.01267508, -0.0017561859,0.0088323355, -0.0105305165, -0.05014229,Lying
1.9420747, 0.11874382, 9.539586,0.017103724, -0.0151184695, -0.0066429637,0.005270958, 0.01425948, -0.07653046,Lying
1.9755741, 0.11395818, 9.575478,0.008475506, -0.010842538, -0.0035887277,0.04042065, 0.012197629, -0.03988743,Lying
1.9492532, 0.116351, 9.61137,-0.0071010995, 0.007482879, 7.635591E-5,0.016320348, 0.01710239, -0.0044174194,Lying
1.9253249, 0.090029955, 9.652048,-0.017027367, 0.016034741, -0.0017561859,-0.005777955, -0.007605493, 0.034740448,Lying
1.9061823, 0.07806584, 9.695119,-0.017027367, 0.014813046, -0.0029778804,-0.024739027, -0.020346828, 0.07538128,Lying
1.9085752, 0.07806584, 9.702297,-0.0077119465, 0.008704574, -0.0023670332,-0.024580717, -0.023019917, 0.08044529,Lying
1.910968, 0.08045866, 9.666406,0.0071774554, -0.0035123718, -0.0029778804,-0.025205255, -0.024151593, 0.043849945,Lying
1.9277177, 0.092422776, 9.599406,0.017790927, -0.016340164, -0.0029778804,-0.011034727, -0.014900781, -0.021800041,Lying
1.9444675, 0.11156536, 9.530014,0.022143213, -0.020616096, -0.004810422,0.0046699047, 0.003388837, -0.088005066,Lying
1.96361, 0.12113664, 9.51805,0.016492875, -0.015729317, -0.0029778804,0.024398804, 0.014125183, -0.09693813,Lying
1.9564316, 0.12592229, 9.561121,0.003436016, -0.0047340663, -0.0023670332,0.01912558, 0.021370478, -0.052583694,Lying
1.9348962, 0.0948156, 9.64487,-0.009544488, 0.007482879, -0.0041995747,-7.519722E-4, -0.007882141, 0.029833794,Lying
1.9325033, 0.06849455, 9.699904,-0.017638214, 0.013591352, -0.0035887277,-0.002456665, -0.033775084, 0.08195877,Lying
1.9085752, 0.07088737, 9.668798,-0.008933641, 0.008704574, -0.0023670332,-0.02671647, -0.031827167, 0.04939747,Lying
1.8774685, 0.11156536, 9.661619,0.003436016, 0.003206948, -0.0017561859,-0.058229208, 0.005791083, 0.04130459,Lying
1.9253249, 0.12352947, 9.58505,0.0077883024, -0.006566608, -0.0017561859,-0.011537194, 0.015245795, -0.03379917,Lying
1.9420747, 0.11395818, 9.532407,0.015271181, -0.01267508, 7.635591E-5,0.004854679, 0.006550841, -0.08355999,Lying
1.9540387, 0.07806584, 9.563514,0.010308048, -0.008399149, -0.0011453386,0.017183423, -0.026133493, -0.050898552,Lying
1.951646, 0.085244305, 9.652048,-0.006490252, -0.0010689828, -0.0029778804,0.015325427, -0.016955562, 0.03620529,Lying
1.9803598, 0.08763713, 9.666406,-0.01267508, 0.00503949, -0.0017561859,0.042952657, -0.01395759, 0.048808098,Lying
1.9444675, 0.10917253, 9.659226,-0.0077119465, 0.0056503373, -0.0011453386,0.00672698, 0.0066612065, 0.040262222,Lying
1.9301106, 0.09720842, 9.616156,-0.0015271181, 0.0019852535, -0.0041995747,-0.0076817274, -0.0058749467, -0.0026693344,Lying
1.8990039, 0.10199407, 9.582657,0.0028251687, -4.5813544E-4, -0.0041995747,-0.038036704, -0.0012722388, -0.034872055,Lying
1.9133608, 0.10677971, 9.594621,0.0028251687, -0.00167983, -0.0060321167,-0.023187637, 0.003222011, -0.0220747,Lying
1.9253249, 0.10438689, 9.599406,3.8177954E-4, -0.0029015245, -0.0041995747,-0.0102597475, 0.0012577251, -0.016833305,Lying
1.951646, 0.12352947, 9.620942,3.8177954E-4, -0.00167983, -0.0029778804,0.016233206, 0.020663418, 0.0044078827,Lying
1.951646, 0.116351, 9.659226,-0.0027488125, 0.003206948, -0.0011453386,0.016055107, 0.012537494, 0.041222572,Lying
1.9468603, 0.06610172, 9.640084,-0.0051922016, 0.0038177953, -5.344914E-4,0.010587931, -0.037813418, 0.021409035,Lying
1.9037895, 0.08763713, 9.62812,0.0022143214, 0.0019852535, -0.0023670332,-0.03229046, -0.016809203, 0.009310722,Lying
1.9013968, 0.10438689, 9.606585,0.006566608, -0.00167983, -0.0035887277,-0.034289718, -0.0012707114, -0.01166153,Lying
1.9325033, 0.116351, 9.599406,0.005955761, -0.0047340663, 7.635591E-5,-0.0034794807, 0.009644464, -0.01812458,Lying
1.9444675, 0.10199407, 9.58505,0.0071774554, -0.004123219, 0.002519745,0.008242965, -0.0044891164, -0.031414032,Lying
1.9085752, 0.09720842, 9.613763,0.003436016, -0.0022906773, -0.0017561859,-0.026717424, -0.008555554, -0.0026054382,Lying
1.9205393, 0.09960124, 9.652048,-0.0015271181, 1.5271181E-4, -0.005421269,-0.014455795, -0.0065648705, 0.034557343,Lying
1.937289, 0.11395818, 9.654441,-0.0027488125, 1.5271181E-4, -0.0023670332,0.0018041134, 0.006001517, 0.035821915,Lying
1.9396819, 0.10917253, 9.606585,0.003436016, -0.0010689828, 6.8720314E-4,0.0036411285, -1.7434359E-6, -0.011561394,Lying
1.9396819, 0.10917253, 9.549157,0.008475506, -0.0022906773, 7.635591E-5,0.003999591, 6.6131353E-4, -0.06682396,Lying
1.910968, 0.11395818, 9.570692,0.005955761, -0.0022906773, -0.0023670332,-0.023091316, 0.007064186, -0.04395199,Lying
1.910968, 0.10438689, 9.6376915,-0.0045813546, 0.0025961008, -0.004810422,-0.021844625, -0.001607433, 0.022208214,Lying
1.9133608, 0.09960124, 9.668798,-0.010842538, 0.004428643, -0.004810422,-0.019220471, -0.0071074963, 0.05164814,Lying
1.9133608, 0.0948156, 9.6376915,-0.0051922016, 0.0025961008, -0.0035887277,-0.019447684, -0.012470521, 0.020026207,Lying
1.910968, 0.11395818, 9.575478,0.0047340663, -0.0022906773, -0.0017561859,-0.021089911, 0.0074153244, -0.04082966,Lying
1.9492532, 0.10438689, 9.575478,0.0053449133, -0.0047340663, 7.635591E-5,0.0176723, -6.701797E-5, -0.039697647,Lying
1.9420747, 0.10677971, 9.623335,-0.0051922016, 1.5271181E-4, 7.635591E-5,0.011173129, 0.003319852, 0.007692337,Lying
1.9061823, 0.10438689, 9.642477,-0.011453386, 0.0056503373, -0.0017561859,-0.023774981, 5.3659827E-4, 0.025927544,Lying
1.9013968, 0.09720842, 9.6783695,-0.006490252, 0.0056503373, -0.0029778804,-0.028924584, -0.009095728, 0.06007099,Lying
1.9157536, 0.08045866, 9.652048,0.001603474, 7.635591E-4, -0.0017561859,-0.015947342, -0.027869001, 0.03302002,Lying
1.9325033, 0.10199407, 9.573085,0.014660334, -0.0071774554, 7.635591E-5,2.6464462E-5, -0.0063802376, -0.044298172,Lying
1.9492532, 0.116351, 9.561121,0.015882028, -0.010231691, 6.8720314E-4,0.01681304, 0.009128824, -0.05452633,Lying
1.9492532, 0.116351, 9.563514,0.001603474, -0.004123219, 6.8720314E-4,0.018179536, 0.010983586, -0.05080414,Lying
1.9277177, 0.10677971, 9.580264,-0.008322794, 0.003206948, -0.0029778804,-7.7724457E-4, 0.0039709806, -0.03343582,Lying
1.8870398, 0.090029955, 9.630513,-0.01267508, 0.010537115, -0.0041995747,-0.038961172, -0.01109004, 0.016037941,Lying
1.8774685, 0.11874382, 9.711869,-0.014507622, 0.013591352, -0.0011453386,-0.047906876, 0.015443087, 0.09440422,Lying
1.9253249, 0.10438689, 9.711869,-0.006490252, 0.0062611843, 0.002519745,-0.0021219254, -0.0023558512, 0.09171486,Lying
1.9253249, 0.075673014, 9.613763,0.0096972, -0.0053449133, 0.004352287,-0.0043637753, -0.03167691, -0.0057458878,Lying
1.9444675, 0.06849455, 9.549157,0.01901262, -0.011453386, 0.0019088977,0.013320208, -0.036675043, -0.06785488,Lying
1.966003, 0.09960124, 9.553943,0.008475506, -0.01267508, -0.0023670332,0.03417933, -0.0035936162, -0.06107807,Lying
1.966003, 0.11874382, 9.570692,-0.0051922016, -0.0053449133, -0.0017561859,0.034626484, 0.017311372, -0.043185234,Lying
1.9348962, 0.09720842, 9.599406,-0.010231691, 0.0025961008, -0.0023670332,0.0060847998, -0.0013257042, -0.014545441,Lying
1.9181465, 0.0948156, 9.659226,-0.01267508, 0.008704574, -0.0011453386,-0.0083966255, -0.0019141063, 0.043395996,Lying
1.8846469, 0.06849455, 9.692726,-0.015194826, 0.014813046, 7.635591E-5,-0.040711522, -0.027347997, 0.074388504,Lying
1.8918254, 0.06131608, 9.675977,-0.009544488, 0.010537115, -0.0017561859,-0.03405559, -0.035006918, 0.05605507,Lying
1.8894325, 0.08763713, 9.64487,-2.2906772E-4, -0.0010689828, -0.0023670332,-0.037994742, -0.011122242, 0.024681091,Lying
1.9205393, 0.09960124, 9.592228,0.008475506, -0.009009997, -0.0023670332,-0.008844018, -0.0013750196, -0.026591301,Lying
1.9540387, 0.10677971, 9.570692,0.014660334, -0.0151184695, -0.0017561859,0.023543954, 0.0053687245, -0.046468735,Lying
1.9707886, 0.10677971, 9.558728,0.011529742, -0.012064233, -0.0023670332,0.04054928, 0.0070539564, -0.056829453,Lying
1.9229321, 0.11395818, 9.573085,9.926268E-4, -0.00167983, -0.0017561859,-0.0046133995, 0.016893215, -0.041578293,Lying
1.9181465, 0.11156536, 9.625728,-0.010842538, 0.008704574, -0.0029778804,-0.0069527626, 0.016329624, 0.010271072,Lying
1.9301106, 0.06849455, 9.652048,-0.017027367, 0.013591352, 6.8720314E-4,0.0055463314, -0.025323369, 0.035243034,Lying
1.8990039, 0.0637089, 9.675977,-0.012064233, 0.01175881, 0.0031305922,-0.026140809, -0.03093782, 0.057512283,Lying
1.8870398, 0.0637089, 9.692726,-0.00335966, 0.0038177953, -0.0017561859,-0.03993404, -0.033121407, 0.07244682,Lying
1.9085752, 0.0948156, 9.6376915,0.009086353, -0.0077883024, -0.004810422,-0.020985007, -0.0050352737, 0.01747799,Lying
1.9564316, 0.116351, 9.601799,0.017103724, -0.016951011, -0.0023670332,0.024240255, 0.01351545, -0.017440796,Lying
1.96361, 0.10677971, 9.544372,0.017103724, -0.017561859, 6.8720314E-4,0.030401349, 0.0034716874, -0.07240391,Lying
1.9348962, 0.11395818, 9.520443,0.01343864, -0.009620844, 7.635591E-5,0.0033181906, 0.0127296075, -0.09350014,Lying
1.9325033, 0.0948156, 9.604192,0.001603474, 1.5271181E-4, -0.0011453386,0.0028204918, -0.0040727407, -0.0097904205,Lying
1.8966111, 0.082851484, 9.680762,-0.013896775, 0.009315421, -0.0029778804,-0.03184569, -0.015593782, 0.064564705,Lying
1.8918254, 0.090029955, 9.680762,-0.01267508, 0.010537115, -0.004810422,-0.036839128, -0.009420045, 0.062711716,Lying
1.9205393, 0.082851484, 9.664013,-2.2906772E-4, 7.635591E-4, -0.0035887277,-0.009382248, -0.018042244, 0.04475212,Lying
1.9325033, 0.0948156, 9.62812,0.0071774554, -0.0077883024, 6.8720314E-4,7.4088573E-4, -0.007839009, 0.008921623,Lying
1.9468603, 0.10917253, 9.597013,0.011529742, -0.008399149, 0.0031305922,0.01340425, 0.0050201565, -0.02120781,Lying
1.9396819, 0.116351, 9.580264,0.010918895, -0.009620844, 6.8720314E-4,0.005711198, 0.01125662, -0.03663349,Lying
1.9253249, 0.10917253, 9.57787,0.006566608, -0.006566608, -0.0023670332,-0.0077813864, 0.0041692927, -0.037846565,Lying
1.9229321, 0.10199407, 9.606585,0.0022143214, -0.00167983, -0.0035887277,-0.009143591, -0.0022969916, -0.00895977,Lying
1.937289, 0.0948156, 9.608977,-0.0015271181, 0.003206948, -0.0011453386,0.005740404, -0.008003414, -0.0064992905,Lying
1.9253249, 0.092422776, 9.635299,-0.00335966, 0.0038177953, 7.635591E-5,-0.0058847666, -0.009253457, 0.01913929,Lying
1.9253249, 0.08045866, 9.666406,-0.006490252, 0.0038177953, -5.344914E-4,-0.0066632032, -0.021577291, 0.04879284,Lying
1.9277177, 0.075673014, 9.649655,-0.0045813546, 7.635591E-4, -0.0011453386,-0.0057725906, -0.027183019, 0.031315804,Lying
1.937289, 0.09960124, 9.589835,0.0053449133, -0.0053449133, -0.0023670332,0.003480196, -0.003696777, -0.027539253,Lying
1.9683957, 0.09960124, 9.573085,0.009086353, -0.009009997, -0.0011453386,0.034372807, -0.0033190325, -0.043009758,Lying
1.9061823, 0.11874382, 9.604192,0.0028251687, -0.0010689828, -0.0011453386,-0.026805878, 0.015740998, -0.011521339,Lying
1.8918254, 0.12592229, 9.599406,-0.0021379655, 0.00503949, -0.0035887277,-0.039666414, 0.023182012, -0.015805244,Lying
1.9205393, 0.116351, 9.587442,-0.0027488125, 7.635591E-4, -0.0017561859,-0.0097721815, 0.01542151, -0.027033806,Lying
1.951646, 0.08763713, 9.618548,-0.0051922016, 7.635591E-4, 0.0019088977,0.021338701, -0.010682844, 0.0037908554,Lying
1.9540387, 0.06849455, 9.6783695,-0.012064233, 0.004428643, 0.0019088977,0.02230835, -0.028789334, 0.06164837,Lying
1.9229321, 0.07088737, 9.680762,-0.01267508, 0.0038177953, -0.0035887277,-0.010048628, -0.027572706, 0.062235832,Lying
1.9061823, 0.085244305, 9.649655,-0.0015271181, -0.0035123718, -0.0060321167,-0.0274508, -0.014646314, 0.03040409,Lying
1.9205393, 0.090029955, 9.601799,0.010308048, -0.008399149, -0.004810422,-0.013410091, -0.010320462, -0.016734123,Lying
1.9325033, 0.10199407, 9.563514,0.010308048, -0.008399149, 7.635591E-5,-0.0016963482, 0.0017585903, -0.0531435,Lying
1.9396819, 0.10438689, 9.553943,0.0047340663, -0.004123219, 0.0019088977,0.0058945417, 0.0059017837, -0.060767174,Lying
1.9181465, 0.092422776, 9.565907,-0.0015271181, -0.00167983, -0.0029778804,-0.013426185, -0.003163457, -0.047540665,Lying
1.9181465, 0.09720842, 9.654441,-0.011453386, 0.003206948, -0.005421269,-0.011834025, 0.002391696, 0.039435387,Lying
1.9229321, 0.07806584, 9.716655,-0.015805673, 0.009315421, -0.004810422,-0.0075604916, -0.017987773, 0.0984602,Lying
1.9013968, 0.07088737, 9.666406,-0.0051922016, 0.0062611843, -0.0035887277,-0.030118704, -0.026458614, 0.04699707,Lying
1.9205393, 0.075673014, 9.618548,0.009086353, -0.004123219, -0.0035887277,-0.012249112, -0.022713333, -5.054474E-4,Lying
1.9277177, 0.116351, 9.62812,0.011529742, -0.010842538, -5.344914E-4,-0.006545186, 0.015259042, 0.0091228485,Lying
1.9301106, 0.11395818, 9.558728,0.0096972, -0.009009997, 7.635591E-5,-0.004431367, 0.011964209, -0.05820656,Lying
1.9301106, 0.11395818, 9.510872,0.011529742, -0.009009997, -5.344914E-4,-0.0028039217, 0.014087059, -0.10287571,Lying
1.9396819, 0.082851484, 9.565907,0.0022143214, -0.0022906773, -0.0017561859,0.00858295, -0.013154179, -0.046660423,Lying
1.9348962, 0.08045866, 9.664013,-0.014507622, 0.008093726, -0.0035887277,0.004920006, -0.012873076, 0.04950905,Lying
1.9325033, 0.075673014, 9.697512,-0.01885991, 0.011147963, -0.0035887277,0.0030204058, -0.016752318, 0.08013916,Lying
1.937289, 0.090029955, 9.707084,-0.012064233, 0.006872032, -0.0011453386,0.0065722466, -0.0047069713, 0.086945534,Lying
1.9229321, 0.08045866, 9.666406,-0.0015271181, 0.003206948, 0.0012980504,-0.009730697, -0.017316893, 0.045179367,Lying
1.8942182, 0.08763713, 9.601799,0.012827792, -0.0053449133, -0.0017561859,-0.039824605, -0.012921885, -0.018248558,Lying
1.9205393, 0.0948156, 9.597013,0.018401774, -0.012064233, -0.0041995747,-0.015238762, -0.008355334, -0.021796227,Lying
1.9468603, 0.11156536, 9.58505,0.016492875, -0.014507622, -0.0029778804,0.009422183, 0.006405294, -0.032360077,Lying
1.9420747, 0.12831512, 9.561121,0.014660334, -0.012064233, -0.0035887277,0.0048463345, 0.022510283, -0.054499626,Lying
1.9396819, 0.12352947, 9.563514,0.008475506, -0.0071774554, -0.004810422,0.004071951, 0.018768154, -0.050727844,Lying
1.9325033, 0.11395818, 9.623335,-0.0015271181, 0.0019852535, -0.0041995747,-0.0015318394, 0.010362633, 0.008505821,Lying
1.9253249, 0.090029955, 9.664013,-0.009544488, 0.009315421, -0.0029778804,-0.007953048, -0.013099305, 0.047471046,Lying
1.9181465, 0.092422776, 9.652048,-0.008322794, 0.008093726, -0.0011453386,-0.014495492, -0.010979615, 0.034297943,Lying
1.9205393, 0.090029955, 9.618548,-2.2906772E-4, 0.0025961008, -5.344914E-4,-0.011451244, -0.012765683, 7.02858E-4,Lying
1.9277177, 0.10438689, 9.568299,0.003436016, 7.635591E-4, 7.635591E-5,-0.0032074451, 0.0033412427, -0.048125267,Lying
1.9396819, 0.10438689, 9.541979,-8.39915E-4, 0.0013744063, 7.635591E-5,0.010728598, 0.007043302, -0.072470665,Lying
1.9396819, 0.092422776, 9.575478,-0.010231691, 0.00503949, -0.0017561859,0.013741136, 3.1882524E-4, -0.038380623,Lying
1.9181465, 0.10199407, 9.692726,-0.021379653, 0.012369657, -0.0023670332,-0.0061813593, 0.012267061, 0.07600117,Lying
1.9133608, 0.06610172, 9.822238,-0.02817533, 0.018478129, -0.0017561859,-0.012361288, -0.027046092, 0.19883251,Lying
1.9133608, 0.054137614, 9.759726,-0.015194826, 0.007482879, -0.0017561859,-0.015717506, -0.04515329, 0.13286209,Lying
1.9037895, 0.0637089, 9.57787,0.02275406, -0.009620844, -0.0011453386,-0.027661443, -0.03867638, -0.046762466,Lying
1.9133608, 0.1378864, 9.48455,0.040774055, -0.020616096, 7.635591E-5,-0.018571496, 0.03481388, -0.13524818,Lying
1.9731814, 0.14985052, 9.451052,0.023364907, -0.017561859, -5.344914E-4,0.042058945, 0.049472325, -0.16361809,Lying
1.951646, 0.12352947, 9.541979,-0.0027488125, -0.005955761, -0.0011453386,0.022765398, 0.027541757, -0.070863724,Lying
1.9325033, 0.06849455, 9.714262,-0.024510246, 0.01175881, -0.0060321167,0.0048629045, -0.02539765, 0.09784031,Lying
1.910968, 0.05174479, 9.778868,-0.030084228, 0.016034741, -0.008475506,-0.016770482, -0.04346738, 0.1572218,Lying
1.9229321, 0.07328019, 9.699904,-0.0077119465, 0.007482879, -0.005421269,-0.006288886, -0.02420304, 0.0759716,Lying
1.9181465, 0.10677971, 9.601799,0.014660334, -0.0035123718, -0.0011453386,-0.012132883, 0.007896006, -0.021151543,Lying
1.9277177, 0.11395818, 9.508479,0.016492875, -0.009009997, 7.635591E-5,-0.0021047592, 0.016509712, -0.110795975,Lying
1.9037895, 0.11874382, 9.503694,0.005955761, -0.0077883024, -5.344914E-4,-0.023805976, 0.02474431, -0.1120491,Lying
1.9085752, 0.10199407, 9.620942,-0.011453386, 0.0019852535, -0.0041995747,-0.017016053, 0.010014534, 0.0047912598,Lying
1.9205393, 0.07328019, 9.764511,-0.023899399, 0.007482879, -0.005421269,-0.005630493, -0.020942606, 0.14366817,Lying
1.9205393, 0.06849455, 9.800404,-0.0132859275, 0.007482879, -0.0035887277,-0.008874416, -0.031650558, 0.17435074,Lying
1.9205393, 0.085244305, 9.685548,0.015271181, -0.004123219, -0.0017561859,-0.013239145, -0.020949647, 0.05845833,Lying
1.9205393, 0.09720842, 9.55155,0.037032615, -0.018783553, -5.344914E-4,-0.015896916, -0.011717163, -0.072434425,Lying
1.9301106, 0.10917253, 9.474979,0.03581092, -0.025502874, -5.344914E-4,-0.0064206123, 9.7444654E-4, -0.14402199,Lying
1.9348962, 0.14267205, 9.479765,0.016492875, -0.016951011, -5.344914E-4,0.0011217594, 0.036679126, -0.13517284,Lying
1.951646, 0.116351, 9.510872,-0.003970507, -0.00167983, 7.635591E-5,0.021659255, 0.015625507, -0.101519585,Lying
1.9301106, 0.09720842, 9.642477,-0.018249061, 0.014813046, 7.635591E-5,0.0034805536, 8.330941E-4, 0.028430939,Lying
1.9061823, 0.06849455, 9.805189,-0.03130592, 0.023975754, -0.0023670332,-0.02019918, -0.027846277, 0.18494892,Lying
1.8894325, 0.049351968, 9.800404,-0.023899399, 0.018478129, -0.0029778804,-0.038829565, -0.050487936, 0.17482948,Lying
1.9253249, 0.08045866, 9.664013,0.0047340663, -0.0022906773, -5.344914E-4,-0.0057011843, -0.023822166, 0.03771782,Lying
1.9588244, 0.11156536, 9.513265,0.028328042, -0.016951011, 0.0031305922,0.025809407, 0.005067304, -0.109101295,Lying
1.9301106, 0.12352947, 9.455837,0.028328042, -0.015729317, 0.0019088977,-0.0015523434, 0.018315434, -0.1612835,Lying
1.9061823, 0.13310076, 9.522836,0.0096972, -0.005955761, -0.0060321167,-0.022155404, 0.0309816, -0.091649055,Lying
1.8846469, 0.12831512, 9.661619,-0.012064233, 0.006872032, -0.0096972,-0.04032731, 0.028202422, 0.045220375,Lying
1.910968, 0.11395818, 9.742975,-0.023212196, 0.013591352, -0.0060321167,-0.0132882595, 0.014170632, 0.12234211,Lying
1.9229321, 0.092422776, 9.707084,-0.015805673, 0.010537115, 7.635591E-5,-0.0017111301, -0.0075853616, 0.08364296,Lying
1.9396819, 0.0637089, 9.673584,-0.00335966, 0.0013744063, 0.004963134,0.013558865, -0.03741683, 0.048675537,Lying
1.9348962, 0.05174479, 9.587442,0.004123219, -0.0022906773, 0.0080173705,0.007389188, -0.050232746, -0.03601551,Lying
1.9061823, 0.07328019, 9.508479,0.01343864, -0.0053449133, 0.0037414394,-0.020597935, -0.027474508, -0.111195564,Lying
1.9133608, 0.10199407, 9.541979,0.01343864, -0.005955761, -0.0011453386,-0.011819243, 0.0036688, -0.07534504,Lying
1.9157536, 0.12352947, 9.630513,-0.0021379655, 1.5271181E-4, -0.0035887277,-0.008523107, 0.02678416, 0.0126543045,Lying
1.9181465, 0.10917253, 9.675977,-0.014507622, 0.0062611843, -0.005421269,-0.0059041977, 0.013708517, 0.056183815,Lying
1.9420747, 0.082851484, 9.6783695,-0.013896775, 0.003206948, -0.0035887277,0.017679095, -0.012089916, 0.05657482,Lying
1.9492532, 0.05174479, 9.664013,-0.008933641, 1.5271181E-4, 0.0019088977,0.023504496, -0.043309808, 0.04092312,Lying
1.8942182, 0.054137614, 9.649655,-2.2906772E-4, 0.0013744063, 0.0019088977,-0.032374382, -0.04245031, 0.026075363,Lying
1.8750757, 0.0948156, 9.58505,0.0077883024, -0.0029015245, -0.0029778804,-0.051900268, -0.0034342483, -0.036842346,Lying
1.9181465, 0.10917253, 9.568299,0.015271181, -0.010231691, -0.0029778804,-0.0098183155, 0.01066298, -0.05155468,Lying
1.9564316, 0.092422776, 9.604192,0.009086353, -0.011453386, -0.0023670332,0.02701664, -0.0050689727, -0.015025139,Lying
1.951646, 0.0948156, 9.640084,-0.0015271181, -0.0071774554, -0.004810422,0.021074295, -0.002035439, 0.020266533,Lying
1.937289, 0.10677971, 9.635299,-0.005879405, -0.0029015245, -0.0066429637,0.0068466663, 0.009948194, 0.01488781,Lying
1.9157536, 0.10438689, 9.616156,-0.003970507, -0.0022906773, -0.004810422,-0.013409138, 0.00843887, -0.004296303,Lying
1.9037895, 0.090029955, 9.606585,-0.0021379655, 0.0019852535, -0.0011453386,-0.023622274, -0.004342504, -0.0136060715,Lying
1.9205393, 0.08763713, 9.613763,-0.005879405, 0.004428643, 0.0019088977,-0.00605464, -0.005193472, -0.006339073,Lying
1.9277177, 0.06131608, 9.632906,-0.0071010995, 0.00503949, 0.002519745,0.0014506578, -0.030359976, 0.012312889,Lying
1.9133608, 0.06131608, 9.666406,-0.0071010995, 0.003206948, 6.8720314E-4,-0.012677312, -0.031111732, 0.0443573,Lying
1.910968, 0.082851484, 9.632906,-8.39915E-4, 0.0019852535, -0.0011453386,-0.015430808, -0.011145756, 0.010669708,Lying
1.8942182, 0.10917253, 9.613763,0.009086353, -0.0010689828, -0.0029778804,-0.03276241, 0.013870977, -0.007863045,Lying
1.9229321, 0.09960124, 9.630513,0.0096972, -0.0047340663, -0.0035887277,-0.005876541, 0.0032947063, 0.009003639,Lying
1.9492532, 0.085244305, 9.635299,0.004123219, -0.009009997, -0.0017561859,0.018575907, -0.011830822, 0.013584137,Lying
1.9325033, 0.10677971, 9.599406,0.004123219, -0.010842538, -0.0029778804,0.0019956827, 0.009370893, -0.021632195,Lying
1.9492532, 0.09960124, 9.556335,0.005955761, -0.006566608, -0.0011453386,0.01926589, 0.0032299384, -0.06280708,Lying
1.9301106, 0.08763713, 9.587442,9.926268E-4, 0.0013744063, 0.004352287,0.0012558699, -0.007196225, -0.030870438,Lying
1.8918254, 0.075673014, 9.61137,-0.005879405, 0.0062611843, 0.0012980504,-0.035229206, -0.016981117, -0.006831169,Lying
1.8966111, 0.0948156, 9.683155,-0.0077119465, 0.0062611843, -0.0041995747,-0.030407906, 0.002306208, 0.06301975,Lying
1.9444675, 0.082851484, 9.740582,-0.008933641, 0.003206948, -0.0023670332,0.01490736, -0.012219116, 0.116888046,Lying
1.9420747, 0.07328019, 9.64487,-8.39915E-4, -0.0053449133, 0.0012980504,0.010559678, -0.024105236, 0.020758629,Lying
1.9205393, 0.10917253, 9.558728,0.015882028, -0.010842538, 6.8720314E-4,-0.011149168, 0.01010181, -0.06312847,Lying
1.9325033, 0.0948156, 9.549157,0.016492875, -0.008399149, -5.344914E-4,8.2814693E-4, -0.0041598827, -0.07028866,Lying
1.8966111, 0.11156536, 9.563514,0.006566608, -0.0029015245, -0.0029778804,-0.033549786, 0.01381661, -0.054149628,Lying
1.9085752, 0.12113664, 9.618548,-8.39915E-4, 1.5271181E-4, -0.005421269,-0.020166159, 0.024680339, 7.238388E-4,Lying
1.9468603, 0.10199407, 9.671191,-0.009544488, 0.0019852535, -0.0029778804,0.017785907, 0.0056428686, 0.051560402,Lying
1.9301106, 0.092422776, 9.699904,-0.011453386, 0.0038177953, -5.344914E-4,-2.0515919E-4, -0.005657196, 0.07787323,Lying
1.910968, 0.07328019, 9.668798,-0.0021379655, 0.0013744063, -0.0023670332,-0.020361662, -0.02688291, 0.045552254,Lying
1.910968, 0.075673014, 9.616156,0.0096972, -0.006566608, -0.0023670332,-0.021334529, -0.025733992, -0.006526947,Lying
1.9396819, 0.10438689, 9.582657,0.015882028, -0.009009997, 7.635591E-5,0.006393552, 0.0018786266, -0.038546562,Lying
1.9444675, 0.11156536, 9.575478,0.011529742, -0.009009997, 0.0012980504,0.010950327, 0.009149395, -0.044237137,Lying
1.9253249, 0.13070793, 9.575478,0.0053449133, -0.004123219, -0.0011453386,-0.007231593, 0.029132284, -0.04292202,Lying
1.9348962, 0.10677971, 9.594621,-0.0027488125, 7.635591E-4, -0.0029778804,0.003742218, 0.007289894, -0.023296356,Lying
1.9540387, 0.07806584, 9.635299,-0.010231691, 0.0038177953, -0.0023670332,0.023831248, -0.019269064, 0.016469002,Lying
1.9229321, 0.06849455, 9.664013,-0.01267508, 0.008093726, -0.0011453386,-0.0063517094, -0.02781114, 0.043549538,Lying
1.87029, 0.090029955, 9.6783695,-0.008322794, 0.009315421, -0.0017561859,-0.05859518, -0.0076404214, 0.056308746,Lying
1.9085752, 0.11395818, 9.618548,-8.39915E-4, 0.0038177953, -0.0023670332,-0.020931125, 0.014625624, -0.0031499863,Lying
1.937289, 0.09960124, 9.55155,0.009086353, -0.008399149, 0.0019088977,0.007229686, 0.0013906211, -0.06779671,Lying
1.9612173, 0.06849455, 9.61137,0.006566608, -0.0071774554, 0.0019088977,0.029830098, -0.027964577, -0.00762558,Lying
1.9468603, 0.05892326, 9.671191,-0.006490252, -0.00167983, -0.0011453386,0.013758659, -0.03771182, 0.050738335,Lying
1.9133608, 0.075673014, 9.635299,-0.0051922016, -0.00167983, -0.004810422,-0.020187855, -0.021407, 0.0145635605,Lying
1.9253249, 0.11156536, 9.597013,0.006566608, -0.006566608, -0.0060321167,-0.008143783, 0.014205709, -0.02291298,Lying
1.9492532, 0.092422776, 9.620942,0.005955761, -0.005955761, -0.0017561859,0.015746117, -0.004958719, 8.993149E-4,Lying
1.9229321, 0.0948156, 9.597013,-8.39915E-4, -0.0010689828, 6.8720314E-4,-0.009866238, -0.0026543066, -0.022346497,Lying
1.8870398, 0.09960124, 9.601799,3.8177954E-4, 0.0025961008, -0.0029778804,-0.044333935, 0.0022264123, -0.01695919,Lying
1.9061823, 0.0948156, 9.661619,-2.2906772E-4, 0.0019852535, -0.0060321167,-0.025539756, -0.003990978, 0.04172039,Lying
1.937289, 0.08763713, 9.683155,-0.0015271181, -4.5813544E-4, -0.0029778804,0.0029765368, -0.0140836835, 0.06167984,Lying
1.9277177, 0.0948156, 9.606585,0.0077883024, -0.006566608, -0.0023670332,-0.008134246, -0.008435726, -0.014061928,Lying
1.9468603, 0.085244305, 9.582657,0.017103724, -0.0132859275, -0.0041995747,0.010232687, -0.018223949, -0.03664303,Lying
1.9707886, 0.092422776, 9.661619,0.009086353, -0.009620844, -0.0029778804,0.031953096, -0.0138656795, 0.041202545,Lying
1.9468603, 0.10917253, 9.654441,0.004123219, -0.0022906773, -0.0017561859,0.006220579, -0.0019151717, 0.033246994,Lying
1.9133608, 0.0948156, 9.539586,0.016492875, -0.005955761, -0.004810422,-0.026687145, -0.017002247, -0.07887173,Lying
1.9181465, 0.10438689, 9.5252285,0.024586603, -0.008399149, -0.0060321167,-0.020468593, -0.0056770667, -0.09028721,Lying
1.9301106, 0.11156536, 9.616156,0.005955761, -0.00167983, -0.004810422,-0.008179665, 0.0022084564, 6.494522E-4,Lying
1.9468603, 0.10199407, 9.632906,-0.008933641, 0.0038177953, -0.0035887277,0.008658767, -0.0069815665, 0.016752243,Lying
1.9492532, 0.11156536, 9.580264,-0.0051922016, 1.5271181E-4, -0.005421269,0.012716889, 0.0045526177, -0.035152435,Lying
1.9564316, 0.12352947, 9.589835,-0.0015271181, 0.0019852535, -0.0035887277,0.021610022, 0.018448658, -0.025229454,Lying
1.9301106, 0.10677971, 9.659226,-0.011453386, 0.011147963, -0.0011453386,-0.0035226345, 0.0020262673, 0.04251194,Lying
1.8990039, 0.09960124, 9.687941,-0.014507622, 0.012980504, -0.004810422,-0.034343004, -0.0072670355, 0.06906223,Lying
1.8942182, 0.082851484, 9.649655,-0.003970507, 0.0056503373, -0.009086353,-0.039247394, -0.025533207, 0.030043602,Lying
1.9085752, 0.116351, 9.592228,0.010918895, -0.0047340663, -0.007864659,-0.024923801, 0.0069046468, -0.02631569,Lying
1.9540387, 0.12352947, 9.580264,0.012140589, -0.0077883024, -0.0023670332,0.019796133, 0.013463244, -0.036990166,Lying
1.9564316, 0.12831512, 9.589835,0.0047340663, -0.0047340663, 0.0012980504,0.021935582, 0.01742296, -0.026595116,Lying
1.9205393, 0.10199407, 9.582657,3.8177954E-4, -4.5813544E-4, -0.0023670332,-0.012360334, -0.007407695, -0.032896996,Lying
1.9037895, 0.10199407, 9.582657,-2.2906772E-4, 0.0025961008, -0.007253811,-0.026451588, -0.004640758, -0.032169342,Lying
1.9133608, 0.10677971, 9.654441,-0.0077119465, 0.0062611843, -0.005421269,-0.015508771, 0.001211375, 0.038158417,Lying
1.9205393, 0.11395818, 9.680762,-0.013896775, 0.009315421, -5.344914E-4,-0.008468509, 0.0070979, 0.06243801,Lying
1.910968, 0.10438689, 9.620942,-0.005879405, 0.004428643, 7.635591E-5,-0.018089652, -0.0027781427, 0.0026330948,Lying
1.9181465, 0.11156536, 9.604192,0.0053449133, -0.0022906773, -0.0011453386,-0.01085937, 0.0047357976, -0.013595581,Lying
1.9803598, 0.082851484, 9.613763,0.0022143214, -0.0035123718, 6.8720314E-4,0.0494802, -0.023914382, -0.0038385391,Lying
1.9396819, 0.08045866, 9.604192,-0.0021379655, -0.00167983, 0.002519745,0.007962823, -0.026106164, -0.012854576,Lying
1.8966111, 0.10677971, 9.594621,0.003436016, -0.0010689828, -0.0023670332,-0.034048676, 1.7919391E-4, -0.021665573,Lying
1.9301106, 0.11395818, 9.580264,0.0028251687, -0.0029015245, -0.0041995747,2.9277802E-4, 0.008367091, -0.035004616,Lying
1.9564316, 0.116351, 9.57787,3.8177954E-4, -4.5813544E-4, 6.8720314E-4,0.02722621, 0.013038911, -0.036478043,Lying
1.9420747, 0.08045866, 9.632906,-0.0071010995, 0.004428643, -0.0011453386,0.013700247, -0.020016663, 0.017689705,Lying
1.9277177, 0.08045866, 9.692726,-0.015805673, 0.008093726, -0.0066429637,-2.7358532E-4, -0.019501701, 0.07488537,Lying
1.910968, 0.08763713, 9.687941,-0.0132859275, 0.006872032, -0.009086353,-0.017661095, -0.014125615, 0.06802368,Lying
1.8990039, 0.10199407, 9.647263,-2.2906772E-4, 0.0019852535, -0.005421269,-0.030516744, -0.0017387643, 0.026810646,Lying
1.9013968, 0.11156536, 9.587442,0.011529742, -0.006566608, -0.0029778804,-0.028166175, 0.007080637, -0.031737328,Lying
1.937289, 0.12352947, 9.549157,0.010918895, -0.010231691, 6.8720314E-4,0.0077433586, 0.019533291, -0.067772865,Lying
1.9277177, 0.116351, 9.601799,0.0028251687, -0.0053449133, 6.8720314E-4,-8.407831E-4, 0.012264289, -0.014789581,Lying
1.9085752, 0.10199407, 9.630513,-0.0071010995, 0.0013744063, -0.004810422,-0.018517137, -0.0025465786, 0.0133190155,Lying
1.8918254, 0.0948156, 9.625728,-0.00335966, 0.00503949, -0.007864659,-0.033745527, -0.009515442, 0.008174896,Lying
1.9253249, 0.092422776, 9.64487,0.0022143214, 0.004428643, -0.0029778804,-4.197359E-4, -0.011690423, 0.02645874,Lying
1.9492532, 0.09720842, 9.661619,9.926268E-4, 0.0019852535, 0.0019088977,0.021988034, -0.007890962, 0.04194069,Lying
1.9181465, 0.092422776, 9.620942,9.926268E-4, -0.0010689828, 7.635591E-5,-0.00913775, -0.013295159, 0.0012722015,Lying
1.8894325, 0.10917253, 9.561121,0.005955761, -0.004123219, -0.0035887277,-0.035693765, 0.004280038, -0.056819916,Lying
1.9348962, 0.11156536, 9.556335,0.0053449133, -0.00167983, -0.0017561859,0.0108315945, 0.008723348, -0.059850693,Lying
1.951646, 0.09960124, 9.597013,-0.0045813546, 0.00503949, 0.002519745,0.028603196, -9.771362E-4, -0.018922806,Lying
1.9181465, 0.08763713, 9.64487,-0.01267508, 0.007482879, -0.0011453386,-0.003378749, -0.010854155, 0.027703285,Lying
1.8870398, 0.085244305, 9.666406,-0.0132859275, 0.010537115, -0.007253811,-0.032659292, -0.0118508935, 0.047459602,Lying
1.9253249, 0.08763713, 9.640084,-0.010231691, 0.007482879, -0.005421269,0.0060380697, -0.008616932, 0.020299911,Lying
1.9133608, 0.10199407, 9.608977,-0.0051922016, 0.0038177953, 7.635591E-5,-0.0051510334, 0.0064676106, -0.010587692,Lying
1.9061823, 0.09720842, 9.589835,-0.0027488125, 0.003206948, 6.8720314E-4,-0.011451364, 0.0032375082, -0.028859138,Lying
1.8990039, 0.082851484, 9.616156,-0.0051922016, 0.003206948, -0.0011453386,-0.017208219, -0.00912001, -0.0026159286,Lying
1.910968, 0.07806584, 9.632906,-0.008933641, 0.0025961008, -5.344914E-4,-0.004480839, -0.012284152, 0.013544083,Lying
1.9277177, 0.10199407, 9.687941,-0.008933641, 0.004428643, 7.635591E-5,0.01167357, 0.010661408, 0.06636524,Lying
1.9205393, 0.085244305, 9.673584,-0.006490252, 0.003206948, -5.344914E-4,0.0033659935, -0.007862009, 0.05047989,Lying
1.8870398, 0.075673014, 9.613763,0.0028251687, -0.0010689828, -0.0023670332,-0.030241013, -0.017762423, -0.0088329315,Lying
1.9085752, 0.085244305, 9.589835,0.010308048, -0.0053449133, -0.0023670332,-0.008942366, -0.007775381, -0.031575203,Lying
1.9253249, 0.0948156, 9.606585,0.0053449133, -0.005955761, 0.0019088977,0.0070240498, 0.0020856261, -0.014220238,Lying
1.9277177, 0.09720842, 9.580264,-2.2906772E-4, -0.0029015245, 0.002519745,0.009467006, 0.0057645887, -0.03928852,Lying
1.9133608, 0.10677971, 9.597013,-0.0021379655, -0.0029015245, -0.0011453386,-0.0034821033, 0.016988426, -0.02204895,Lying
1.937289, 0.06610172, 9.647263,-0.008322794, 0.0019852535, -0.0023670332,0.020810246, -0.021984808, 0.027071,Lying
1.9085752, 0.046959143, 9.70469,-0.012064233, 0.006872032, -0.0011453386,-0.008292794, -0.041120328, 0.081851006,Lying
1.8535402, 0.09720842, 9.683155,-0.005879405, 0.0056503373, -0.0035887277,-0.06345415, 0.0063351393, 0.058757782,Lying
1.8822541, 0.11874382, 9.599406,0.006566608, -0.0035123718, -0.0041995747,-0.035445333, 0.025524467, -0.023814201,Lying
