acc_x,acc_y,acc_z,gyro_x,gyro_y,gyro_z,la_x,la_y,la_z,Activity
-0.23463176, 0.30406362, 9.988609,-0.2908172, -0.17044231, -0.21145499,-0.008763403, 0.0073517263, 0.26483345,Lying
-0.35913026, 0.31364042, 10.060435,-0.2908172, -0.17044231, -0.21145499,-0.21813601, 0.054479986, -0.095238686,Lying
-0.6488287, 0.38067806, 9.696517,-0.2908172, -0.17044231, -0.21145499,0.057528943, -0.013250589, 0.31755733,Lying
-0.34715924, 0.30406362, 10.110714,-0.2908172, -0.17044231, -0.21145499,0.042948842, 0.0046958923, 0.2449112,Lying
-0.34237084, 0.320823, 10.038888,0.046339005, -0.033023197, 0.12357068,0.035690606, 0.009046465, 0.23537922,Lying
-0.34237084, 0.33518824, 10.029311,0.08575379, -0.0644485, 0.14966966,0.34595102, 0.031837374, -1.3503199,Lying
0.088585466, 0.38067806, 8.446744,-0.13209279, -0.5289038, 0.25193503,0.7962791, 0.05424604, -2.1314845,Lying
0.6440403, 0.37828386, 7.668628,-0.7435546, -0.45220476, 0.23062976,1.2211308, -0.86814743, 3.9043741,Lying
1.1587936, -0.6895301, 13.709199,-0.92944324, -0.33289513, 0.025566347,-0.3812411, -0.11377097, 2.4636345,Lying
-0.37828386, -0.11731588, 12.270284,0.32650355, 0.128897, -0.11771172,-0.12127561, 0.43995366, -3.1960478,Lying
-0.1436521, 0.50038815, 6.6103907,-0.042077947, -0.06498113, -0.07403588,-0.32546616, -0.07131617, 1.831707,Lying
-0.33518824, -0.019153614, 11.638214,-0.32384038, -0.029294772, 0.012250541,0.1165021, -0.20895037, 1.1492243,Lying
0.11252748, -0.22026655, 10.955867,-0.0026631611, 0.046339005, 0.03888215,0.0034904098, 0.1339359, 0.18437004,Lying
-0.009576807, 0.12210429, 9.991004,0.28815404, 0.068176925, 0.019707393,0.20359598, 0.16602854, -1.5058155,Lying
0.17717093, 0.21068975, 8.300697,-0.06178534, -0.014913702, 0.007989483,0.03786067, -0.18338855, 1.1828175,Lying
0.01436521, -0.15083471, 10.989386,-0.13848437, -0.030360037, -0.00958738,-0.09258549, 0.011355812, 0.5147705,Lying
-0.110133275, 0.016759412, 10.3214035,0.1304949, 0.043675844, -0.0010652645,0.10751256, 0.11506301, -0.9216833,Lying
0.08140286, 0.14604631, 8.884883,0.006924219, 0.0053263223, 0.00958738,0.08700276, -0.094594955, 0.7566595,Lying
0.059855044, -0.062249243, 10.563218,-0.08735169, -0.0063915867, -0.0058589545,-0.00522702, 0.03266444, 0.021594048,Lying
-0.031124622, 0.047884032, 9.828198,0.0793622, -0.004261058, 5.326322E-4,0.11106306, 0.03623036, -0.2800417,Lying
0.08619126, 0.06703765, 9.526528,-0.021837922, -0.0031957934, 0.0053263223,0.014181723, -0.04070649, 0.49804783,Lying
-0.0047884034, -0.01436521, 10.304645,0.00479369, -0.0015978967, -0.0037284256,0.022167731, 0.03885044, -0.14599514,Lying
0.007182605, 0.06703765, 9.660604,0.026631612, -0.0010652645, 0.0053263223,0.06041542, -0.00709131, 0.10780239,Lying
0.050278235, 0.02633622, 9.91439,-0.03089267, 0.0, -0.0026631611,-0.0012467997, -0.013050447, 0.23227978,Lying
-0.009576807, 0.01436521, 10.038888,0.018642128, -0.002130529, 0.0010652645,0.032252267, 0.023671046, -0.083745,Lying
0.02633622, 0.055066638, 9.722853,5.326322E-4, -5.326322E-4, 0.0010652645,0.017647572, -0.01234312, 0.1963768,Lying
0.011971008, 0.019153614, 10.0029745,-0.00958738, -0.002130529, -0.0015978967,0.017105797, 0.011061164, 0.069478035,Lying
0.011971008, 0.04070143, 9.876082,0.013848438, 0.0, 0.0010652645,0.026549855, -0.0012331232, 0.0431509,Lying
0.021547815, 0.031124622, 9.849746,-0.008522116, 5.326322E-4, -5.326322E-4,0.016868282, -0.009126147, 0.16285515,Lying
0.011971008, 0.021547815, 9.969456,0.0031957934, 5.326322E-4, 5.326322E-4,0.021522153, 0.009386275, 0.04075241,Lying
0.016759412, 0.04070143, 9.847352,0.0031957934, -5.326322E-4, 5.326322E-4,0.01879067, -0.015139172, 0.11976242,Lying
0.01436521, 0.016759412, 9.92636,-0.0031957934, 0.0, -5.326322E-4,0.023368027, -1.2372062E-4, 0.08624172,Lying
0.019153614, 0.031124622, 9.892841,0.0053263223, 5.326322E-4, 5.326322E-4,0.020852264, -0.001137346, 0.05990982,Lying
0.016759412, 0.031124622, 9.866506,-0.002130529, -0.0010652645, 0.0,0.022805072, 0.0040765405, 0.1077919,Lying
0.019153614, 0.035913024, 9.91439,5.326322E-4, 0.0, 5.326322E-4,0.017803919, -0.010356365, 0.06948471,Lying
0.01436521, 0.021547815, 9.876082,0.0015978967, -0.0010652645, 0.0010652645,0.015024299, -0.010615105, 0.09821606,Lying
0.011971008, 0.021547815, 9.904813,-0.0010652645, -0.0010652645, 5.326322E-4,0.021802975, 0.0063767247, 0.09582043,Lying
0.019153614, 0.038307227, 9.902418,0.0026631611, -5.326322E-4, 5.326322E-4,0.019120462, 0.0034719668, 0.08864021,Lying
0.016759412, 0.035913024, 9.895236,5.326322E-4, -5.326322E-4, 0.0010652645,0.023588337, -0.010954218, 0.11018658,Lying
0.021547815, 0.021547815, 9.916783,0.0, -0.0015978967, 5.326322E-4,0.020657677, -0.0037268344, 0.07906246,Lying
0.019153614, 0.02873042, 9.885659,0.0010652645, -5.326322E-4, 0.0,0.027484749, 0.0056592785, 0.095822334,Lying
0.02633622, 0.038307227, 9.902418,0.0015978967, -5.326322E-4, 0.0,0.01997153, -0.0018157102, 0.09103489,Lying
0.019153614, 0.031124622, 9.89763,0.0010652645, 5.326322E-4, 0.0010652645,0.024630424, 0.0051608384, 0.098217964,Lying
0.023942016, 0.038307227, 9.904813,0.0010652645, -0.0010652645, 5.326322E-4,0.03129192, -0.006989129, 0.09582424,Lying
0.031124622, 0.02633622, 9.902418,0.002130529, -5.326322E-4, 0.0,0.018959275, -2.0000339E-4, 0.09343243,Lying
0.019153614, 0.033518825, 9.900024,0.0010652645, -0.0010652645, 0.0,0.013773564, -0.0027786419, 0.09822178,Lying
0.01436521, 0.031124622, 9.904813,5.326322E-4, 0.0, 0.0,0.01599657, -0.0028577298, 0.086250305,Lying
0.016759412, 0.031124622, 9.892841,0.002130529, -5.326322E-4, 5.326322E-4,0.0062037734, 0.003916867, 0.07907009,Lying
0.007182605, 0.038307227, 9.885659,5.326322E-4, -0.0010652645, 5.326322E-4,0.020226398, -0.008131202, 0.09822273,Lying
0.021547815, 0.02633622, 9.904813,0.0010652645, -0.0010652645, 0.0,0.007960585, 0.0036413297, 0.09104061,Lying
0.009576807, 0.038307227, 9.89763,0.0015978967, 0.0, 0.0,0.019808155, -0.0014450215, 0.08146572,Lying
0.021547815, 0.033518825, 9.888053,5.326322E-4, -5.326322E-4, -5.326322E-4,0.014792358, -0.0015333779, 0.09583092,Lying
0.016759412, 0.033518825, 9.902418,0.0, -5.326322E-4, -5.326322E-4,0.014575776, -0.011075605, 0.100619316,Lying
0.016759412, 0.023942016, 9.907207,5.326322E-4, 0.0, 0.0,0.009698124, -0.001577191, 0.09583092,Lying
0.011971008, 0.033518825, 9.902418,0.0010652645, -0.0010652645, 5.326322E-4,0.018949471, -0.008925017, 0.09104347,Lying
0.021547815, 0.02633622, 9.89763,0.0015978967, -0.0010652645, 5.326322E-4,0.016223893, -0.0044046454, 0.0934391,Lying
0.019153614, 0.031124622, 9.900024,0.0010652645, 5.326322E-4, 5.326322E-4,0.016202774, -0.009345967, 0.093440056,Lying
0.019153614, 0.02633622, 9.900024,5.326322E-4, -0.0010652645, 5.326322E-4,0.01588124, 1.635328E-4, 0.09104538,Lying
0.019153614, 0.035913024, 9.89763,0.0010652645, 0.0, 5.326322E-4,0.015741505, -0.0071746167, 0.09583378,Lying
0.019153614, 0.02873042, 9.902418,0.0010652645, -0.0015978967, 5.326322E-4,0.02005296, -0.016869046, 0.09583473,Lying
0.023942016, 0.019153614, 9.902418,0.0010652645, 0.0010652645, 5.326322E-4,0.01768542, -0.012179378, 0.08386421,Lying
0.021547815, 0.023942016, 9.890448,5.326322E-4, 0.0, 0.0,0.015132023, -0.005014267, 0.09104633,Lying
0.019153614, 0.031124622, 9.89763,5.326322E-4, -0.0015978967, 0.0010652645,0.014680728, -0.01221339, 0.08625889,Lying
0.019153614, 0.023942016, 9.892841,0.0010652645, -0.0010652645, 0.0010652645,0.014329279, -0.012319755, 0.098231316,Lying
0.019153614, 0.023942016, 9.904813,5.326322E-4, 0.0, -0.0010652645,0.018976025, 0.0020068064, 0.08386612,Lying
0.023942016, 0.038307227, 9.890448,0.0, -5.326322E-4, 0.0,0.011581846, 0.002042491, 0.098231316,Lying
0.016759412, 0.038307227, 9.904813,5.326322E-4, 0.0, -5.326322E-4,0.018635798, -0.014757579, 0.098231316,Lying
0.023942016, 0.021547815, 9.904813,0.0010652645, -0.0010652645, 5.326322E-4,0.00873837, -0.0148847755, 0.08147144,Lying
0.01436521, 0.021547815, 9.888053,0.0010652645, -5.326322E-4, 5.326322E-4,0.008521225, -0.012597874, 0.086260796,Lying
0.01436521, 0.023942016, 9.892841,0.0010652645, -5.326322E-4, -5.326322E-4,0.008330453, -0.00793642, 0.09583855,Lying
0.01436521, 0.02873042, 9.902418,5.326322E-4, 0.0015978967, 0.0015978967,0.008548045, -0.019893637, 0.09823322,Lying
0.01436521, 0.016759412, 9.904813,0.0010652645, -5.326322E-4, 0.0,0.010766879, 0.013456803, 0.093444824,Lying
0.016759412, 0.050278235, 9.900024,5.326322E-4, 0.0010652645, 0.0,0.015676338, -0.00814593, 0.100626945,Lying
0.021547815, 0.02873042, 9.907207,5.326322E-4, 0.0, 0.0015978967,0.010800881, -0.012974847, 0.08386898,Lying
0.016759412, 0.023942016, 9.890448,0.0015978967, 0.0, 5.326322E-4,0.015507771, -0.0036622137, 0.09344578,Lying
0.021547815, 0.033518825, 9.900024,0.0010652645, -5.326322E-4, -5.326322E-4,0.017711721, -0.0014389493, 0.105418205,Lying
0.023942016, 0.035913024, 9.911995,0.0010652645, 0.0, 0.0,0.017594628, -0.003996473, 0.09823704,Lying
0.023942016, 0.033518825, 9.904813,0.0010652645, 5.326322E-4, 5.326322E-4,0.022335075, 6.2144175E-4, 0.10063076,Lying
0.02873042, 0.038307227, 9.907207,5.326322E-4, -5.326322E-4, 0.0,0.01491559, -0.006624244, 0.08387184,Lying
0.021547815, 0.031124622, 9.890448,0.0015978967, -5.326322E-4, -5.326322E-4,0.012273861, -0.016433047, 0.08147907,Lying
0.019153614, 0.021547815, 9.888053,0.0, -0.0015978967, 0.0,0.0142330015, 3.7803873E-4, 0.110209465,Lying
0.021547815, 0.038307227, 9.916783,5.326322E-4, 0.0, 5.326322E-4,0.01410756, -0.014017649, 0.08626747,Lying
0.021547815, 0.023942016, 9.892841,5.326322E-4, -0.0010652645, 0.0,0.018552331, 2.978742E-4, 0.08866215,Lying
0.02633622, 0.038307227, 9.895236,0.002130529, 0.0010652645, -5.326322E-4,0.0042910315, -0.02157442, 0.100634575,Lying
0.011971008, 0.016759412, 9.907207,0.0010652645, -5.326322E-4, 0.0,0.011270823, -0.009723751, 0.100634575,Lying
0.019153614, 0.02873042, 9.907207,0.0015978967, 0.0, 0.0,0.013557645, -0.0075534806, 0.09345341,Lying
0.021547815, 0.031124622, 9.900024,5.326322E-4, -5.326322E-4, 0.0,0.010961373, -0.012356214, 0.091059685,Lying
0.019153614, 0.02633622, 9.89763,0.0, 5.326322E-4, 5.326322E-4,-9.5395325E-4, -0.0027285963, 0.08387661,Lying
0.007182605, 0.035913024, 9.890448,0.0015978967, 0.0015978967, -5.326322E-4,0.006491258, -0.0077743717, 0.08387756,Lying
0.01436521, 0.031124622, 9.890448,0.0, 5.326322E-4, 0.0010652645,0.013698262, -0.017259086, 0.08866501,Lying
0.021547815, 0.021547815, 9.895236,5.326322E-4, 0.0, -5.326322E-4,0.025527753, -0.022006052, 0.103030205,Lying
0.033518825, 0.016759412, 9.909601,0.002130529, -5.326322E-4, 5.326322E-4,0.013306555, -0.012695029, 0.08387852,Lying
0.021547815, 0.02633622, 9.890448,5.326322E-4, -5.326322E-4, 0.0,0.0035213064, -0.010276182, 0.093455315,Lying
0.011971008, 0.02873042, 9.900024,-5.326322E-4, 0.0, 5.326322E-4,0.02017017, -0.0076801963, 0.09106064,Lying
0.02873042, 0.031124622, 9.89763,0.0015978967, 0.0, 0.0010652645,0.012883951, -0.0031291433, 0.09106159,Lying
0.021547815, 0.035913024, 9.89763,0.0010652645, 0.0015978967, 5.326322E-4,0.0130874235, -0.012826145, 0.08627319,Lying
0.021547815, 0.02633622, 9.892841,0.0010652645, 0.0, -5.326322E-4,0.01055979, -0.020072144, 0.10063839,Lying
0.019153614, 0.019153614, 9.907207,5.326322E-4, 5.326322E-4, -5.326322E-4,0.020070003, -0.022381315, 0.08866787,Lying
0.02873042, 0.016759412, 9.895236,0.0, -5.326322E-4, 5.326322E-4,0.015014006, -0.010247508, 0.09106064,Lying
0.023942016, 0.02873042, 9.89763,0.0, -5.326322E-4, 0.0,0.009996951, -5.693212E-4, 0.08148384,Lying
0.019153614, 0.038307227, 9.888053,0.0, -5.326322E-4, -5.326322E-4,0.0074210083, -0.0076844133, 0.07669544,Lying
0.016759412, 0.031124622, 9.883265,-0.0015978967, -0.0010652645, 0.0,0.00475372, -0.016867915, 0.09345436,Lying
0.01436521, 0.021547815, 9.900024,5.326322E-4, -0.0015978967, 0.0,0.009184055, 0.004611917, 0.093455315,Lying
0.019153614, 0.04309563, 9.900024,0.0, 0.0, 0.0010652645,0.016287751, -0.019253757, 0.09824276,Lying
0.02633622, 0.019153614, 9.904813,5.326322E-4, 5.326322E-4, -5.326322E-4,0.011506226, -0.016853886, 0.091059685,Lying
0.021547815, 0.021547815, 9.89763,-5.326322E-4, -0.0010652645, 0.0010652645,0.006447683, 6.70664E-5, 0.09824276,Lying
0.016759412, 0.038307227, 9.904813,-5.326322E-4, 0.0, 0.0010652645,0.015936472, -0.0117238425, 0.09105873,Lying
0.02633622, 0.02633622, 9.89763,0.0010652645, 0.0010652645, -5.326322E-4,0.0064875977, -0.014236286, 0.09824276,Lying
0.016759412, 0.023942016, 9.904813,5.326322E-4, 0.0, 0.0010652645,0.013576805, -0.011848848, 0.09584808,Lying
0.023942016, 0.02633622, 9.902418,0.0015978967, 5.326322E-4, 5.326322E-4,0.013581076, -0.0072827563, 0.08387852,Lying
0.023942016, 0.031124622, 9.890448,5.326322E-4, -5.326322E-4, 0.0,0.008589298, -0.014460251, 0.09584904,Lying
0.019153614, 0.023942016, 9.902418,0.0, 5.326322E-4, 5.326322E-4,0.020556673, -2.5454909E-5, 0.09584904,Lying
0.031124622, 0.038307227, 9.902418,0.002130529, 0.0, -0.0010652645,0.0037233224, -0.0075648427, 0.08387947,Lying
0.01436521, 0.031124622, 9.890448,0.0, 5.326322E-4, 0.0,0.0061457288, -0.012274444, 0.09106159,Lying
0.016759412, 0.02633622, 9.89763,5.326322E-4, 5.326322E-4, -0.0010652645,0.0037907362, -0.021845473, 0.09584999,Lying
0.01436521, 0.016759412, 9.902418,0.0010652645, -5.326322E-4, -5.326322E-4,0.013192619, -0.0075978003, 0.09106159,Lying
0.023942016, 0.031124622, 9.89763,0.0, -5.326322E-4, -5.326322E-4,0.008234318, -0.014685411, 0.09824467,Lying
0.019153614, 0.023942016, 9.904813,0.0, -5.326322E-4, 0.0,9.0851355E-4, -0.0026548207, 0.081484795,Lying
0.011971008, 0.035913024, 9.888053,0.0010652645, -5.326322E-4, 0.0,0.007933819, -0.024300996, 0.095850945,Lying
0.019153614, 0.01436521, 9.902418,5.326322E-4, -0.002130529, -0.0010652645,0.0074656736, -0.007549353, 0.091062546,Lying
0.019153614, 0.031124622, 9.89763,0.0, 5.326322E-4, 5.326322E-4,0.005131432, -0.0074703507, 0.091062546,Lying
0.016759412, 0.031124622, 9.89763,5.326322E-4, 5.326322E-4, 5.326322E-4,0.00520303, -0.007518787, 0.091062546,Lying
0.016759412, 0.031124622, 9.89763,0.0, -5.326322E-4, 5.326322E-4,0.0050578136, -0.017007405, 0.09106159,Lying
0.016759412, 0.021547815, 9.89763,0.0010652645, -5.326322E-4, 5.326322E-4,0.01925203, -0.0027802438, 0.095850945,Lying
0.031124622, 0.035913024, 9.902418,-5.326322E-4, 0.0, 5.326322E-4,0.009596265, -0.021718415, 0.083880424,Lying
0.021547815, 0.016759412, 9.890448,0.0010652645, 0.0, 5.326322E-4,0.007138172, -0.00508599, 0.08866978,Lying
0.019153614, 0.033518825, 9.895236,5.326322E-4, 0.0, 0.0,0.0023104576, -0.0027447306, 0.0910635,Lying
0.01436521, 0.035913024, 9.89763,-5.326322E-4, 0.0, 0.0,0.011837892, -0.0073772147, 0.091062546,Lying
0.023942016, 0.031124622, 9.89763,5.326322E-4, 0.0010652645, 0.002130529,0.00246826, -0.0026927106, 0.08627415,Lying
0.01436521, 0.035913024, 9.892841,5.326322E-4, 0.0, 5.326322E-4,0.009650453, -4.0294603E-4, 0.08866978,Lying
0.021547815, 0.038307227, 9.895236,-5.326322E-4, 5.326322E-4, 0.0,0.012092918, -0.021783104, 0.081484795,Lying
0.023942016, 0.016759412, 9.888053,5.326322E-4, -5.326322E-4, 0.0,0.014321812, -0.0026855282, 0.0958519,Lying
0.02633622, 0.035913024, 9.902418,5.326322E-4, 0.0010652645, 0.0,0.004880634, -0.021843987, 0.083880424,Lying
0.016759412, 0.016759412, 9.890448,0.0, 0.0010652645, 5.326322E-4,0.0050301105, -0.009787163, 0.09106159,Lying
0.016759412, 0.02873042, 9.89763,0.002130529, 0.0, 0.0,0.012152302, -5.6870654E-4, 0.08388138,Lying
0.023942016, 0.038307227, 9.890448,5.326322E-4, -0.0015978967, 0.0010652645,0.0046131937, -0.0078062117, 0.09824753,Lying
0.016759412, 0.031124622, 9.904813,5.326322E-4, 0.0010652645, 5.326322E-4,0.002396713, -0.0126494765, 0.08388233,Lying
0.01436521, 0.02633622, 9.890448,0.0010652645, 0.0010652645, -0.0010652645,0.014524627, -0.008011181, 0.08388233,Lying
0.02633622, 0.031124622, 9.890448,-5.326322E-4, 5.326322E-4, 5.326322E-4,0.0050063357, -0.0030716173, 0.0958519,Lying
0.016759412, 0.035913024, 9.902418,0.0010652645, 0.0015978967, 0.0010652645,0.017225519, -0.010408813, 0.08867073,Lying
0.02873042, 0.02873042, 9.895236,-5.326322E-4, -5.326322E-4, 0.0015978967,0.012249734, -0.012623917, 0.093458176,Lying
0.023942016, 0.02633622, 9.900024,5.326322E-4, 5.326322E-4, 0.0,0.0027277144, -0.005494952, 0.10064125,Lying
0.01436521, 0.033518825, 9.907207,0.0, 0.0010652645, -5.326322E-4,0.007662261, -0.024550162, 0.0862751,Lying
0.019153614, 0.01436521, 9.892841,0.0015978967, 5.326322E-4, -5.326322E-4,0.0053317053, -0.003257461, 0.10064125,Lying
0.016759412, 0.035913024, 9.907207,0.0010652645, 0.0, 5.326322E-4,5.10402E-4, -0.0153662935, 0.08867073,Lying
0.011971008, 0.023942016, 9.895236,5.326322E-4, -5.326322E-4, -0.0010652645,0.012332128, -0.01299819, 0.095853806,Lying
0.023942016, 0.02633622, 9.902418,0.002130529, 0.0, 0.0,0.009885612, -0.010939533, 0.09585476,Lying
0.021547815, 0.02873042, 9.902418,-0.0010652645, -5.326322E-4, 5.326322E-4,0.009721073, -0.010645261, 0.07909489,Lying
0.021547815, 0.02873042, 9.885659,0.0010652645, 5.326322E-4, -5.326322E-4,0.012155181, -0.0012137778, 0.10543156,Lying
0.023942016, 0.038307227, 9.911995,0.0, -5.326322E-4, -5.326322E-4,0.007206617, -0.010727717, 0.10064316,Lying
0.019153614, 0.02873042, 9.907207,0.0010652645, 5.326322E-4, 0.0,0.009629064, -0.025180988, 0.09346104,Lying
0.021547815, 0.01436521, 9.900024,0.0, 5.326322E-4, 0.0,0.007251557, -0.01306612, 0.095853806,Lying
0.019153614, 0.02633622, 9.902418,0.0010652645, 0.0015978967, 0.0010652645,0.014657459, -0.013154861, 0.09585476,Lying
0.02633622, 0.02633622, 9.902418,-0.0010652645, 0.0, 5.326322E-4,0.0073888674, -0.0128236115, 0.10303593,Lying
0.019153614, 0.02633622, 9.909601,0.0010652645, 0.0010652645, -5.326322E-4,0.012317696, -9.92965E-4, 0.10064125,Lying
0.023942016, 0.038307227, 9.907207,0.0, 0.0, 0.0,0.012243511, -0.005718719, 0.09585285,Lying
0.023942016, 0.033518825, 9.902418,-5.326322E-4, -0.0010652645, 5.326322E-4,0.004793345, -0.010341009, 0.07669926,Lying
0.016759412, 0.02873042, 9.883265,5.326322E-4, 0.0010652645, 5.326322E-4,0.009725312, -0.0032075942, 0.081487656,Lying
0.021547815, 0.035913024, 9.888053,0.0015978967, 0.0015978967, 5.326322E-4,0.012363346, -0.0058636926, 0.083883286,Lying
0.023942016, 0.033518825, 9.890448,0.0010652645, 0.0010652645, -5.326322E-4,0.0149047, -0.0036423542, 0.098249435,Lying
0.02633622, 0.035913024, 9.904813,5.326322E-4, -0.0010652645, 0.0,0.007460123, -0.008496929, 0.08627796,Lying
0.019153614, 0.031124622, 9.892841,5.326322E-4, 0.0, 5.326322E-4,0.012166391, -0.006152183, 0.08867264,Lying
0.023942016, 0.033518825, 9.895236,0.0010652645, 0.0010652645, 5.326322E-4,0.0075300643, -0.0015391409, 0.09346199,Lying
0.019153614, 0.038307227, 9.900024,5.326322E-4, 0.0010652645, 5.326322E-4,0.00767639, -0.015950646, 0.09106827,Lying
0.019153614, 0.023942016, 9.89763,5.326322E-4, 0.0010652645, 0.0,0.007818268, -0.015974518, 0.09106827,Lying
0.019153614, 0.023942016, 9.89763,0.0, 0.002130529, -5.326322E-4,0.010552609, -0.011097824, 0.09585476,Lying
0.021547815, 0.02873042, 9.902418,5.326322E-4, 0.002130529, 5.326322E-4,0.013276932, -0.0015569106, 0.10543156,Lying
0.023942016, 0.038307227, 9.911995,-5.326322E-4, 0.0010652645, 5.326322E-4,0.022924952, -0.010940811, 0.083883286,Lying
0.033518825, 0.02873042, 9.890448,0.0010652645, 5.326322E-4, 0.0,0.0037780404, -0.015841559, 0.098249435,Lying
0.01436521, 0.023942016, 9.904813,0.0, 5.326322E-4, 0.0,0.010967683, -0.010956297, 0.088671684,Lying
0.021547815, 0.02873042, 9.895236,5.326322E-4, 0.0010652645, 0.0010652645,0.006292559, -0.018117635, 0.088671684,Lying
0.016759412, 0.021547815, 9.895236,5.326322E-4, 5.326322E-4, 0.0010652645,0.003939884, -0.00616597, 0.08148861,Lying
0.01436521, 0.033518825, 9.888053,5.326322E-4, 5.326322E-4, -5.326322E-4,0.0111612575, -0.0014183484, 0.095853806,Lying
0.021547815, 0.038307227, 9.902418,0.0, 5.326322E-4, 0.0,0.01119515, -0.0061476976, 0.07909393,Lying
0.021547815, 0.033518825, 9.885659,0.0, 0.0010652645, 5.326322E-4,-6.228974E-4, -0.022809865, 0.08867073,Lying
0.009576807, 0.016759412, 9.895236,0.0, 0.0015978967, 0.0,0.011613861, -0.008381434, 0.08867073,Lying
0.021547815, 0.031124622, 9.895236,0.0, 0.0015978967, 5.326322E-4,0.0070897965, -0.008319482, 0.105428696,Lying
0.016759412, 0.031124622, 9.911995,0.0010652645, -5.326322E-4, 5.326322E-4,0.011728179, -0.006086562, 0.086276054,Lying
0.021547815, 0.033518825, 9.892841,0.0010652645, 0.0, -0.0010652645,0.018825501, -0.0038407668, 0.086276054,Lying
0.02873042, 0.035913024, 9.892841,0.0, 0.0, 5.326322E-4,0.006787084, -0.0014048107, 0.08388233,Lying
0.016759412, 0.038307227, 9.890448,0.0010652645, 5.326322E-4, 5.326322E-4,0.011612784, -0.013530888, 0.088671684,Lying
0.021547815, 0.02633622, 9.895236,0.0010652645, 0.0010652645, 0.0,0.014134479, 6.690584E-4, 0.09106636,Lying
0.023942016, 0.04070143, 9.89763,5.326322E-4, 5.326322E-4, 0.0,0.009375133, -0.011353226, 0.08627796,Lying
0.019153614, 0.02873042, 9.892841,0.0, 5.326322E-4, 0.0,0.016553342, -0.023219606, 0.09585476,Lying
0.02633622, 0.016759412, 9.902418,0.0, 0.002130529, 0.0,0.007299822, -0.008761838, 0.083883286,Lying
0.016759412, 0.031124622, 9.890448,0.0, 0.0010652645, 0.0,0.00503535, -0.013453484, 0.08867073,Lying
0.01436521, 0.02633622, 9.895236,-5.326322E-4, 5.326322E-4, 0.0,0.009853424, -0.008477386, 0.0910635,Lying
0.019153614, 0.031124622, 9.89763,0.0010652645, 5.326322E-4, 5.326322E-4,0.014643511, -0.010977747, 0.08388233,Lying
0.023942016, 0.02873042, 9.890448,5.326322E-4, 0.0, -5.326322E-4,0.00976852, -0.006212972, 0.09106445,Lying
0.019153614, 0.033518825, 9.89763,0.0010652645, 0.0010652645, -5.326322E-4,0.014665683, -0.013510246, 0.09345913,Lying
0.023942016, 0.02633622, 9.900024,0.0, -5.326322E-4, 0.0010652645,0.0120587675, -0.01340232, 0.069517136,Lying
0.021547815, 0.02633622, 9.876082,5.326322E-4, 0.0010652645, 0.0,0.0049951645, -0.018172367, 0.08867073,Lying
0.01436521, 0.021547815, 9.895236,0.0, 0.0, 0.0010652645,1.3872143E-4, -0.025197778, 0.10542965,Lying
0.009576807, 0.01436521, 9.911995,0.0010652645, 0.0, -5.326322E-4,0.004874233, -0.008526705, 0.08388233,Lying
0.01436521, 0.031124622, 9.890448,0.0015978967, -5.326322E-4, 5.326322E-4,0.011883656, -0.013499856, 0.09346008,Lying
0.021547815, 0.02633622, 9.900024,0.0010652645, 0.0010652645, 0.0,0.004852074, -0.00642357, 0.09824848,Lying
0.01436521, 0.033518825, 9.904813,0.0010652645, 0.0010652645, 5.326322E-4,0.00740298, -0.008942798, 0.100642204,Lying
0.016759412, 0.031124622, 9.907207,0.0, 0.0, 0.0,0.019292302, -0.008857034, 0.088671684,Lying
0.02873042, 0.031124622, 9.895236,0.0, 0.0, 0.0010652645,0.00724163, -0.02071447, 0.09106541,Lying
0.016759412, 0.019153614, 9.89763,5.326322E-4, 0.0026631611, 0.0,0.0029196674, -0.0063719824, 0.086276054,Lying
0.011971008, 0.033518825, 9.892841,5.326322E-4, 5.326322E-4, -0.0010652645,0.012528515, -0.011172103, 0.10064125,Lying
0.021547815, 0.02873042, 9.907207,5.326322E-4, 0.0, 0.0,0.005287735, -0.008802924, 0.09345913,Lying
0.01436521, 0.031124622, 9.900024,5.326322E-4, 0.0015978967, 0.0,0.0031585312, -0.011223214, 0.10064125,Lying
0.011971008, 0.02873042, 9.907207,0.0015978967, -5.326322E-4, 0.0010652645,0.01017083, -0.018604947, 0.09346104,Lying
0.019153614, 0.021547815, 9.900024,5.326322E-4, 0.0, 0.0,0.017250754, -0.01617083, 0.09824848,Lying
0.02633622, 0.023942016, 9.904813,0.0010652645, 5.326322E-4, -0.0010652645,0.0124688195, -0.006689355, 0.103037834,Lying
0.021547815, 0.033518825, 9.909601,5.326322E-4, -5.326322E-4, 0.0,0.014656332, -0.009086225, 0.09346104,Lying
0.023942016, 0.031124622, 9.900024,5.326322E-4, -5.326322E-4, 0.0,0.0048875995, -0.018644067, 0.08148956,Lying
0.01436521, 0.021547815, 9.888053,5.326322E-4, 0.0015978967, 5.326322E-4,0.007505943, -0.016215395, 0.098249435,Lying
0.016759412, 0.023942016, 9.904813,-5.326322E-4, 0.0, 0.0,0.019345067, -0.01356009, 0.086276054,Lying
0.02873042, 0.02633622, 9.892841,0.0, -5.326322E-4, 0.0,0.007185084, -0.0038913004, 0.095853806,Lying
0.016759412, 0.035913024, 9.902418,0.0, 5.326322E-4, 0.0,0.01673055, -0.025269315, 0.09824753,Lying
0.02633622, 0.01436521, 9.904813,5.326322E-4, 5.326322E-4, 0.0010652645,0.009536552, -0.008478627, 0.09345913,Lying
0.019153614, 0.031124622, 9.900024,5.326322E-4, 5.326322E-4, -5.326322E-4,0.004788165, -0.0085005425, 0.10542965,Lying
0.01436521, 0.031124622, 9.911995,5.326322E-4, 0.0, 0.0,0.019038737, -0.008497529, 0.10064125,Lying
0.02873042, 0.031124622, 9.907207,5.326322E-4, 0.0010652645, 5.326322E-4,0.004794663, -0.015676208, 0.069517136,Lying
0.01436521, 0.023942016, 9.876082,0.0010652645, 0.0010652645, 0.0,0.014472525, -0.010980057, 0.08867073,Lying
0.023942016, 0.02873042, 9.895236,0.0015978967, 5.326322E-4, 5.326322E-4,0.009686445, -0.020731512, 0.088671684,Lying
0.019153614, 0.019153614, 9.895236,-5.326322E-4, 0.0010652645, 5.326322E-4,0.021693422, -0.020425469, 0.08388233,Lying
0.031124622, 0.019153614, 9.890448,0.0010652645, 0.0, 0.0,0.0048165936, -0.015677158, 0.081487656,Lying
0.01436521, 0.023942016, 9.888053,0.0, 0.0, 0.0,0.009497998, -0.015516955, 0.0910635,Lying
0.019153614, 0.023942016, 9.89763,5.326322E-4, 0.0010652645, 5.326322E-4,0.014389952, -0.0059253424, 0.0862751,Lying
0.023942016, 0.033518825, 9.892841,0.0015978967, 0.0010652645, 0.0,0.012101015, -0.010914424, 0.09345913,Lying
0.021547815, 0.02873042, 9.900024,5.326322E-4, 0.0010652645, -0.0010652645,0.009815446, -0.015685137, 0.10303497,Lying
0.019153614, 0.023942016, 9.909601,0.0010652645, -5.326322E-4, 0.0,0.011988651, -0.010970494, 0.08867073,Lying
0.021547815, 0.02873042, 9.895236,0.0, 0.0, -5.326322E-4,0.01427812, -0.010861078, 0.09585285,Lying
0.023942016, 0.02873042, 9.902418,0.0, -0.0010652645, 0.0,0.00442206, -0.010773519, 0.08867073,Lying
0.01436521, 0.02873042, 9.895236,0.0010652645, -5.326322E-4, -5.326322E-4,0.009015771, -0.013254892, 0.09106445,Lying
0.019153614, 0.02633622, 9.89763,0.0010652645, -0.0010652645, 0.0010652645,0.008723572, -0.013343334, 0.08627701,Lying
0.019153614, 0.02633622, 9.892841,0.0, -0.0015978967, 0.0,0.0035530645, -0.02277003, 0.09346008,Lying
0.01436521, 0.016759412, 9.900024,0.0, -0.0010652645, 0.0,0.0033011949, -0.010694778, 0.081487656,Lying
0.01436521, 0.02873042, 9.888053,5.326322E-4, 0.0010652645, 5.326322E-4,0.0058464212, -0.015446249, 0.09824753,Lying
0.016759412, 0.023942016, 9.904813,0.0010652645, 5.326322E-4, 0.0,-0.0036545447, -0.013138317, 0.08867073,Lying
0.007182605, 0.02633622, 9.895236,0.0010652645, -0.0010652645, 0.0010652645,0.0104718935, -0.003703367, 0.09346008,Lying
0.021547815, 0.035913024, 9.900024,0.002130529, 5.326322E-4, 0.0010652645,9.789756E-4, -0.00407172, 0.09825039,Lying
0.011971008, 0.035913024, 9.904813,0.0010652645, -0.0015978967, 5.326322E-4,0.0102120945, -0.0066232085, 0.088674545,Lying
0.021547815, 0.033518825, 9.895236,0.0, 0.0, 0.0010652645,0.012562202, -0.01135282, 0.09106827,Lying
0.023942016, 0.02873042, 9.89763,5.326322E-4, 5.326322E-4, 0.0,0.024525907, -0.013748348, 0.09106827,Lying
0.035913024, 0.02633622, 9.89763,5.326322E-4, 0.0, -5.326322E-4,0.012436233, -0.016122587, 0.093462944,Lying
0.023942016, 0.023942016, 9.900024,-5.326322E-4, -0.0015978967, 5.326322E-4,0.0024711601, -0.008741684, 0.088674545,Lying
0.01436521, 0.031124622, 9.895236,5.326322E-4, 0.0, 0.0,0.014345612, -0.015910462, 0.08388615,Lying
0.02633622, 0.023942016, 9.890448,0.0010652645, -0.0015978967, 5.326322E-4,0.0043808874, -0.011220792, 0.09106922,Lying
0.016759412, 0.02873042, 9.89763,5.326322E-4, 5.326322E-4, 5.326322E-4,0.0068102274, -0.011219522, 0.09106922,Lying
0.019153614, 0.02873042, 9.89763,0.0, 0.0015978967, 5.326322E-4,0.0022825738, -0.0063465275, 0.100645065,Lying
0.01436521, 0.033518825, 9.907207,5.326322E-4, -5.326322E-4, 5.326322E-4,0.004533993, -0.011169596, 0.09106827,Lying
0.016759412, 0.02873042, 9.89763,5.326322E-4, 0.0, 0.0,0.016441235, -0.0040237755, 0.09585667,Lying
0.02873042, 0.035913024, 9.902418,-5.326322E-4, -5.326322E-4, 5.326322E-4,-4.6899263E-4, -0.018196406, 0.09106827,Lying
0.011971008, 0.021547815, 9.89763,0.0, 5.326322E-4, -5.326322E-4,0.013927547, -0.010911623, 0.08867359,Lying
0.02633622, 0.02873042, 9.895236,0.0, 5.326322E-4, 5.326322E-4,0.006816604, 0.0010928512, 0.09346199,Lying
0.019153614, 0.04070143, 9.900024,-5.326322E-4, -5.326322E-4, 5.326322E-4,-4.976094E-4, -0.013121437, 0.08867264,Lying
0.011971008, 0.02633622, 9.895236,-5.326322E-4, 0.0, -5.326322E-4,0.018597793, -0.010559382, 0.07909584,Lying
0.031124622, 0.02873042, 9.885659,0.0, 0.0, 0.0010652645,0.0018018251, -0.008116871, 0.08867264,Lying
0.01436521, 0.031124622, 9.895236,-0.0015978967, -5.326322E-4, 5.326322E-4,0.011224206, -0.012529451, 0.09106445,Lying
0.023942016, 0.02633622, 9.89763,-5.326322E-4, 5.326322E-4, 5.326322E-4,0.006506714, -4.2153522E-4, 0.10303593,Lying
0.019153614, 0.038307227, 9.909601,0.0, 0.0010652645, 0.0,-4.670741E-4, -0.009998342, 0.08866978,Lying
0.011971008, 0.02873042, 9.895236,-5.326322E-4, 0.0, 0.0,0.004284745, -0.021779748, 0.0958519,Lying
0.016759412, 0.016759412, 9.902418,-0.0010652645, 0.002130529, 0.0,0.011838223, -0.0047474876, 0.09584999,Lying
0.023942016, 0.033518825, 9.902418,5.326322E-4, 0.0, 5.326322E-4,0.014161253, -0.014340777, 0.09106159,Lying
0.02633622, 0.023942016, 9.89763,5.326322E-4, -5.326322E-4, -5.326322E-4,0.011583958, -0.016733518, 0.09345627,Lying
0.023942016, 0.021547815, 9.900024,-5.326322E-4, -0.0015978967, 5.326322E-4,0.008811548, -0.009361969, 0.08866787,Lying
0.021547815, 0.02873042, 9.895236,0.0, 0.0, -0.0015978967,0.011124837, -0.016432116, 0.08387947,Lying
0.023942016, 0.021547815, 9.890448,0.0, -5.326322E-4, 0.0,0.006155628, -0.009140661, 0.08866787,Lying
0.019153614, 0.02873042, 9.895236,0.0, -5.326322E-4, -5.326322E-4,-0.0011774926, -0.013826229, 0.09106064,Lying
0.011971008, 0.023942016, 9.89763,0.0, -5.326322E-4, 5.326322E-4,0.010632014, -0.0065533966, 0.081484795,Lying
0.023942016, 0.031124622, 9.888053,0.0, 0.0, 5.326322E-4,0.0034083435, -0.0112649985, 0.08627224,Lying
0.016759412, 0.02633622, 9.892841,-5.326322E-4, 0.0010652645, 0.0,0.0035820715, -0.006308131, 0.09584904,Lying
0.016759412, 0.031124622, 9.902418,0.0, 0.0015978967, 5.326322E-4,0.011025921, -0.0086328555, 0.09105873,Lying
0.023942016, 0.02873042, 9.89763,0.0, 5.326322E-4, 0.002130529,-8.422695E-4, -0.0014497079, 0.08627033,Lying
0.011971008, 0.035913024, 9.892841,-5.326322E-4, -0.0010652645, 0.0,0.0037069377, -0.015643997, 0.09345341,Lying
0.016759412, 0.021547815, 9.900024,5.326322E-4, -5.326322E-4, 0.0,0.010741809, -0.015666066, 0.09105873,Lying
0.023942016, 0.021547815, 9.89763,0.0010652645, 0.0, 5.326322E-4,0.0106877135, -0.0062221177, 0.09584808,Lying
0.023942016, 0.031124622, 9.902418,-5.326322E-4, 0.0, 0.0,0.0034737894, -0.00368068, 0.08866501,Lying
0.016759412, 0.033518825, 9.895236,-0.0010652645, 5.326322E-4, 0.0,0.0059459256, -0.0106164105, 0.08866501,Lying
0.019153614, 0.02633622, 9.895236,0.0, 0.0, 0.0,0.0083160885, -0.008190492, 0.09345245,Lying
0.021547815, 0.02873042, 9.900024,-5.326322E-4, -0.0010652645, 0.0,0.010466291, -0.00804591, 0.07908726,Lying
0.023942016, 0.02873042, 9.885659,0.0, 0.0, 5.326322E-4,-0.0038993116, -0.0032573603, 0.083875656,Lying
0.009576807, 0.033518825, 9.890448,-0.0010652645, -5.326322E-4, 5.326322E-4,0.007966898, -0.010231007, 0.091056824,Lying
0.021547815, 0.02633622, 9.89763,0.0010652645, 5.326322E-4, 0.0,0.010437395, -0.010402545, 0.09105778,Lying
0.023942016, 0.02633622, 9.89763,5.326322E-4, -0.0010652645, 0.0,0.005413425, -0.008074453, 0.08148193,Lying
0.019153614, 0.02873042, 9.888053,5.326322E-4, -5.326322E-4, -0.0010652645,0.0077040037, -9.965524E-4, 0.08148193,Lying
0.021547815, 0.035913024, 9.888053,0.0, -5.326322E-4, -5.326322E-4,0.0028115846, -9.967014E-4, 0.08866501,Lying
0.016759412, 0.035913024, 9.895236,-0.0010652645, -0.002130529, -5.326322E-4,0.009576949, -0.005576428, 0.09345341,Lying
0.023942016, 0.031124622, 9.900024,0.0010652645, -5.326322E-4, 0.0,0.004684139, -0.008179447, 0.086271286,Lying
0.019153614, 0.02873042, 9.892841,0.0, 0.0, 0.0,0.011820821, -0.010525823, 0.10303116,Lying
0.02633622, 0.02633622, 9.909601,5.326322E-4, -5.326322E-4, 0.0,-2.545938E-4, 0.0037349872, 0.093455315,Lying
0.01436521, 0.04070143, 9.900024,0.0, 0.0, 5.326322E-4,0.0069276188, -0.005841665, 0.08627224,Lying
0.021547815, 0.031124622, 9.892841,0.0, 0.0010652645, -5.326322E-4,0.007136829, -0.0058418214, 0.07669544,Lying
0.021547815, 0.031124622, 9.883265,-5.326322E-4, 5.326322E-4, 0.0010652645,0.004811111, -0.015265012, 0.07908821,Lying
0.019153614, 0.021547815, 9.885659,-0.0010652645, 0.0, 0.0,2.2707507E-5, -0.007873589, 0.09105873,Lying
0.01436521, 0.02873042, 9.89763,-5.326322E-4, 5.326322E-4, 5.326322E-4,0.0049151257, -0.01016324, 0.09105778,Lying
0.019153614, 0.02633622, 9.89763,0.0, 0.0, 0.0,0.014464907, -0.005345352, 0.095846176,Lying
0.02873042, 0.031124622, 9.902418,0.0010652645, -0.0015978967, 0.0010652645,-2.388116E-4, -0.012689084, 0.08387661,Lying
0.01436521, 0.023942016, 9.890448,0.0, 0.0, 0.0010652645,-0.0026337942, -0.00790037, 0.09105873,Lying
0.011971008, 0.02873042, 9.89763,-0.0010652645, 0.0010652645, 0.0010652645,0.0023626508, -0.0052970424, 0.100634575,Lying
0.016759412, 0.031124622, 9.907207,0.0010652645, 0.0, -5.326322E-4,0.00952422, -0.010253064, 0.08627033,Lying
0.023942016, 0.02633622, 9.892841,-5.326322E-4, 5.326322E-4, -0.0010652645,0.0024468023, -0.00775476, 0.09105778,Lying
0.016759412, 0.02873042, 9.89763,0.0, 0.0010652645, 0.0,2.6141852E-4, -0.010148961, 0.09105778,Lying
0.01436521, 0.02633622, 9.89763,0.0010652645, -0.0010652645, -0.0010652645,0.0024312027, -0.015082283, 0.098241806,Lying
0.016759412, 0.021547815, 9.904813,0.0010652645, 0.0, -5.326322E-4,0.0024157315, -0.012825716, 0.09105873,Lying
0.016759412, 0.023942016, 9.89763,0.0, 5.326322E-4, 5.326322E-4,1.16629526E-4, -0.0055971146, 0.076693535,Lying
0.01436521, 0.031124622, 9.883265,0.0015978967, 0.0010652645, 0.0,0.0027196482, -0.0059103407, 0.08387756,Lying
0.016759412, 0.031124622, 9.890448,0.0010652645, 0.0010652645, -5.326322E-4,0.0077169444, -0.0013305843, 0.07909012,Lying
0.021547815, 0.035913024, 9.885659,0.0, -0.0015978967, -5.326322E-4,0.0026157154, -0.008513326, 0.09584904,Lying
0.016759412, 0.02873042, 9.902418,0.0010652645, -5.326322E-4, 5.326322E-4,1.165485E-4, -0.006328106, 0.08627319,Lying
0.01436521, 0.031124622, 9.892841,5.326322E-4, 0.0015978967, 0.0010652645,0.0051975474, -0.0135581605, 0.09106159,Lying
0.019153614, 0.023942016, 9.89763,0.0010652645, 0.0, -0.0010652645,0.0028041508, -0.0017962605, 0.08387947,Lying
0.016759412, 0.035913024, 9.890448,0.0010652645, 0.0, 0.0,0.005198351, -0.0067934804, 0.0958519,Lying
0.019153614, 0.031124622, 9.902418,0.0010652645, 0.002130529, 5.326322E-4,0.012798186, 1.8044934E-4, 0.0958519,Lying
0.02633622, 0.038307227, 9.902418,0.0, 0.002130529, 0.0,0.0036390126, -0.00939635, 0.09345627,Lying
0.016759412, 0.02873042, 9.900024,0.0, 0.0015978967, 0.0010652645,-0.003231179, 0.0025749356, 0.10542679,Lying
0.009576807, 0.04070143, 9.911995,0.0010652645, 5.326322E-4, 0.0,0.013632641, -0.009604892, 0.098246574,Lying
0.02633622, 0.02873042, 9.904813,0.0, 0.0, 0.0,0.01359592, -0.0071822554, 0.08866882,Lying
0.02633622, 0.031124622, 9.895236,0.0, 0.0015978967, 0.0,0.004297505, -0.00715103, 0.09584999,Lying
0.016759412, 0.031124622, 9.902418,5.326322E-4, 0.0010652645, 0.0,0.01164286, -0.014390286, 0.09345627,Lying
0.023942016, 0.023942016, 9.900024,5.326322E-4, 5.326322E-4, 5.326322E-4,0.009297681, -0.0096483845, 0.08866882,Lying
0.021547815, 0.02873042, 9.895236,0.0010652645, 0.0, 5.326322E-4,0.006840297, -0.0073943064, 0.0910635,Lying
0.019153614, 0.031124622, 9.89763,0.0, 5.326322E-4, 0.0010652645,0.004504828, -0.004950516, 0.08866882,Lying
0.016759412, 0.033518825, 9.895236,0.0, -0.0010652645, 5.326322E-4,0.0042578876, -0.012077838, 0.09345722,Lying
0.016759412, 0.02633622, 9.900024,0.0, 5.326322E-4, 0.0,-0.00760871, -0.009683622, 0.09824562,Lying
0.0047884034, 0.02873042, 9.904813,-5.326322E-4, 5.326322E-4, 0.0,0.009232609, -0.014312107, 0.08627319,Lying
0.021547815, 0.023942016, 9.892841,0.0, 5.326322E-4, 0.0,0.0069213333, -0.007088106, 0.08866787,Lying
0.019153614, 0.031124622, 9.895236,0.0, 5.326322E-4, 0.002130529,0.011775668, -0.01182067, 0.09345627,Lying
0.023942016, 0.02633622, 9.900024,0.0, -0.0010652645, 0.0,0.013899079, -0.016521947, 0.08387947,Lying
0.02633622, 0.021547815, 9.890448,5.326322E-4, 0.0, 0.0,0.004264462, -0.016521001, 0.08866787,Lying
0.016759412, 0.021547815, 9.895236,0.0010652645, 0.0010652645, 0.0,0.00443634, 8.487329E-5, 0.103033066,Lying
0.016759412, 0.038307227, 9.909601,0.0010652645, 0.0, 0.0010652645,0.00922393, 0.0070589297, 0.083880424,Lying
0.021547815, 0.045489833, 9.890448,0.0, 0.0, 0.0,-3.528772E-4, -0.012094684, 0.083880424,Lying
0.011971008, 0.02633622, 9.890448,5.326322E-4, 0.002130529, 0.0,6.475672E-5, -2.280809E-4, 0.081484795,Lying
0.011971008, 0.038307227, 9.888053,0.0010652645, -0.0010652645, 0.0,0.014183216, -0.019535378, 0.0862751,Lying
0.02633622, 0.019153614, 9.892841,0.0, 0.0, 0.0010652645,0.004572183, -0.01229462, 0.0910635,Lying
0.016759412, 0.02633622, 9.89763,0.0, 0.0010652645, 5.326322E-4,0.011904069, -0.014599681, 0.0910635,Lying
0.023942016, 0.023942016, 9.89763,0.0015978967, 5.326322E-4, -5.326322E-4,1.0637566E-5, -0.0028959736, 0.08866978,Lying
0.011971008, 0.035913024, 9.895236,5.326322E-4, -5.326322E-4, 0.0,0.004694634, -6.061755E-4, 0.086276054,Lying
0.016759412, 0.038307227, 9.892841,0.0015978967, 0.0010652645, -5.326322E-4,0.0048615495, -0.017595598, 0.086276054,Lying
0.016759412, 0.021547815, 9.892841,-0.0010652645, 5.326322E-4, -5.326322E-4,0.007311574, -0.007730659, 0.0910635,Lying
0.019153614, 0.031124622, 9.89763,5.326322E-4, 0.0, 0.0,0.004868855, -0.0196966, 0.098246574,Lying
0.016759412, 0.019153614, 9.904813,0.0015978967, 0.0010652645, 5.326322E-4,-0.0021301443, -0.012737103, 0.08867073,Lying
0.009576807, 0.02633622, 9.895236,0.0010652645, 0.0, 0.0,0.005018904, -0.019999359, 0.09345913,Lying
0.016759412, 0.019153614, 9.900024,0.0, 5.326322E-4, 0.0,0.007477725, -0.007922217, 0.08867073,Lying
0.019153614, 0.031124622, 9.895236,5.326322E-4, 0.0, -5.326322E-4,0.012214998, -0.010327401, 0.086276054,Lying
0.023942016, 0.02873042, 9.892841,0.0, 0.0, -5.326322E-4,1.9884761E-4, -0.022159593, 0.105428696,Lying
0.011971008, 0.016759412, 9.911995,5.326322E-4, 5.326322E-4, 5.326322E-4,0.005049402, -0.0053994283, 0.0862751,Lying
0.016759412, 0.033518825, 9.892841,0.0, 5.326322E-4, -0.0010652645,0.014684564, -0.010115193, 0.08866978,Lying
0.02633622, 0.02873042, 9.895236,-5.326322E-4, 5.326322E-4, -5.326322E-4,0.0051687146, -0.007549662, 0.091062546,Lying
0.016759412, 0.031124622, 9.89763,0.0010652645, 0.002130529, 0.0,0.010328441, -0.007701315, 0.07909298,Lying
0.021547815, 0.031124622, 9.885659,-5.326322E-4, 0.0010652645, 5.326322E-4,0.008089695, -0.012316562, 0.09345627,Lying
0.019153614, 0.02633622, 9.900024,0.0015978967, 0.0015978967, 5.326322E-4,0.013115505, -0.014929973, 0.10303402,Lying
0.023942016, 0.023942016, 9.909601,5.326322E-4, 0.0010652645, 0.0010652645,0.020379052, -0.01012875, 0.09345722,Lying
0.031124622, 0.02873042, 9.900024,0.0010652645, 0.0015978967, 5.326322E-4,0.006226588, -0.007845368, 0.08627415,Lying
0.016759412, 0.031124622, 9.892841,-5.326322E-4, 5.326322E-4, 5.326322E-4,0.0014671879, -0.010041403, 0.09106159,Lying
0.011971008, 0.02873042, 9.89763,0.0, 0.0015978967, 0.0,0.011306564, -0.0075942613, 0.088666916,Lying
0.021547815, 0.031124622, 9.895236,0.0010652645, 0.0010652645, 5.326322E-4,0.0066584637, -0.0077292807, 0.08627319,Lying
0.016759412, 0.031124622, 9.892841,0.0, 0.0010652645, -5.326322E-4,0.004412396, -0.014824275, 0.08866787,Lying
0.01436521, 0.023942016, 9.895236,0.0, 5.326322E-4, 0.0015978967,0.014042258, -0.0075875893, 0.088666916,Lying
0.023942016, 0.031124622, 9.895236,0.0010652645, 5.326322E-4, -0.0010652645,-2.6177522E-4, -0.010123892, 0.08627319,Lying
0.009576807, 0.02873042, 9.892841,0.0015978967, -0.0010652645, 5.326322E-4,0.009051996, -8.006133E-4, 0.07669735,Lying
0.019153614, 0.038307227, 9.883265,0.0010652645, -0.0010652645, -5.326322E-4,0.013571256, -0.0105245765, 0.0814867,Lying
0.023942016, 0.02873042, 9.888053,0.0010652645, -5.326322E-4, -5.326322E-4,-9.449329E-4, -0.020213906, 0.09585285,Lying
0.009576807, 0.019153614, 9.902418,5.326322E-4, 5.326322E-4, 5.326322E-4,0.013459557, -0.013034299, 0.09585285,Lying
0.023942016, 0.02633622, 9.902418,0.0, 5.326322E-4, 0.0,0.015866335, -0.005754795, 0.0910635,Lying
0.02633622, 0.033518825, 9.89763,0.0015978967, 0.0, 0.0010652645,0.0062163556, -0.017934674, 0.09106445,Lying
0.016759412, 0.021547815, 9.89763,0.0010652645, -5.326322E-4, 5.326322E-4,0.0012662075, -0.010854749, 0.083883286,Lying
0.011971008, 0.02873042, 9.890448,0.0, 0.0, 5.326322E-4,0.010775347, -0.015527274, 0.08388233,Lying
0.021547815, 0.023942016, 9.890448,0.0, 5.326322E-4, 0.0,-0.001140994, -0.013009325, 0.09585285,Lying
0.009576807, 0.02633622, 9.902418,0.0010652645, -5.326322E-4, -0.0010652645,0.008285628, -0.0059468932, 0.08867073,Lying
0.019153614, 0.033518825, 9.895236,0.0, 0.0, 0.0,0.00345431, -0.013031967, 0.10064125,Lying
0.01436521, 0.02633622, 9.907207,0.0015978967, 0.0010652645, 5.326322E-4,0.008402697, -0.01563644, 0.09106541,Lying
0.019153614, 0.023942016, 9.89763,5.326322E-4, -5.326322E-4, -5.326322E-4,0.005864544, -0.010867884, 0.083883286,Lying
0.016759412, 0.02873042, 9.890448,0.0010652645, 5.326322E-4, -0.0010652645,0.0059262747, -0.0109867435, 0.09106636,Lying
0.016759412, 0.02873042, 9.89763,0.0010652645, 5.326322E-4, 0.0,0.013145223, -0.008702263, 0.08867264,Lying
0.023942016, 0.031124622, 9.895236,5.326322E-4, -0.0010652645, 0.0010652645,0.010461672, -0.013479251, 0.08627796,Lying
0.021547815, 0.02633622, 9.892841,0.0010652645, -0.0015978967, 0.0,5.3267926E-4, -0.0016548783, 0.09106827,Lying
0.011971008, 0.038307227, 9.89763,5.326322E-4, 0.0010652645, 0.0,0.00786798, -0.023193186, 0.07670212,Lying
0.019153614, 0.016759412, 9.883265,-5.326322E-4, -5.326322E-4, 0.0,0.0124801, -0.0110046845, 0.08867264,Lying
0.023942016, 0.02873042, 9.895236,0.0, 0.0010652645, 0.0,0.0102246795, -0.018073449, 0.09585476,Lying
0.021547815, 0.021547815, 9.902418,5.326322E-4, 5.326322E-4, -5.326322E-4,0.01740266, -0.018026678, 0.09106636,Lying
0.02873042, 0.021547815, 9.89763,0.0, 5.326322E-4, 0.0010652645,0.017401915, -0.0011734106, 0.098249435,Lying
0.02873042, 0.038307227, 9.904813,0.0010652645, 5.326322E-4, 5.326322E-4,0.007833699, -0.013251677, 0.09585476,Lying
0.019153614, 0.02633622, 9.902418,5.326322E-4, 0.0010652645, -5.326322E-4,0.0055671195, -0.010864073, 0.07191181,Lying
0.016759412, 0.02873042, 9.878476,0.0015978967, 0.0, 5.326322E-4,7.168194E-4, -0.015854295, 0.08148956,Lying
0.011971008, 0.023942016, 9.888053,0.0, 0.0, 0.0,0.007832461, -0.020504307, 0.098249435,Lying
0.019153614, 0.019153614, 9.904813,5.326322E-4, 0.0, 5.326322E-4,0.00537645, -0.01567981, 0.09585476,Lying
0.016759412, 0.023942016, 9.902418,0.0, -0.0010652645, 5.326322E-4,0.0027290452, -0.015553623, 0.08627796,Lying
0.01436521, 0.023942016, 9.892841,0.0010652645, 5.326322E-4, 0.0,0.009950078, -0.020383157, 0.09346104,Lying
0.021547815, 0.019153614, 9.900024,0.0010652645, 5.326322E-4, 0.0,0.0028162096, -0.018025907, 0.08148956,Lying
0.01436521, 0.021547815, 9.888053,5.326322E-4, 5.326322E-4, 0.0,0.002878475, -0.013201289, 0.098249435,Lying
0.01436521, 0.02633622, 9.904813,-0.0010652645, 5.326322E-4, 0.0,0.0029461803, -0.0128646195, 0.10303593,Lying
0.01436521, 0.02633622, 9.909601,-5.326322E-4, 0.0, 0.0,0.01245912, -0.017394496, 0.0766983,Lying
0.023942016, 0.021547815, 9.883265,0.0, -0.0015978967, 0.0,0.009689418, -0.010086214, 0.0862751,Lying
0.021547815, 0.02873042, 9.892841,0.0015978967, 0.0010652645, -0.0010652645,0.012205247, -0.01742498, 0.0814867,Lying
0.023942016, 0.021547815, 9.888053,5.326322E-4, 0.0, 0.0,0.0073351376, -0.0149818845, 0.08388138,Lying
0.019153614, 0.023942016, 9.890448,0.0015978967, 5.326322E-4, 0.0010652645,0.0025880244, -0.01037336, 0.07909393,Lying
0.01436521, 0.02873042, 9.885659,-5.326322E-4, 5.326322E-4, -5.326322E-4,0.0050391154, -0.0077793896, 0.08866978,Lying
0.016759412, 0.031124622, 9.895236,0.0010652645, 0.002130529, 5.326322E-4,0.010191337, -0.010297349, 0.0910635,Lying
0.021547815, 0.02873042, 9.89763,5.326322E-4, -5.326322E-4, 0.0,0.0100470595, -7.8017265E-4, 0.107824326,Lying
0.021547815, 0.038307227, 9.91439,0.0, 5.326322E-4, -5.326322E-4,0.017258013, -0.007899161, 0.1006403,Lying
0.02873042, 0.031124622, 9.907207,5.326322E-4, 0.0, 0.0,0.002843868, -0.010343203, 0.086276054,Lying
0.01436521, 0.02873042, 9.892841,5.326322E-4, 0.0010652645, 0.0,0.01256361, -0.015160244, 0.081487656,Lying
0.023942016, 0.023942016, 9.888053,0.0, 5.326322E-4, 5.326322E-4,0.01259404, -0.005515553, 0.098246574,Lying
0.023942016, 0.033518825, 9.904813,0.0, 0.0, -5.326322E-4,0.010128106, -0.010234969, 0.0958519,Lying
0.021547815, 0.02873042, 9.902418,-5.326322E-4, 0.0010652645, -5.326322E-4,0.0031079557, -0.0052945577, 0.0814867,Lying
0.01436521, 0.033518825, 9.888053,-5.326322E-4, 0.0, 0.0,0.007855874, -0.002761405, 0.10063934,Lying
0.019153614, 0.035913024, 9.907207,5.326322E-4, 0.0, 5.326322E-4,0.014966888, -0.021939376, 0.083880424,Lying
0.02633622, 0.016759412, 9.890448,5.326322E-4, 0.0026631611, 5.326322E-4,0.012990333, -0.017133405, 0.08387947,Lying
0.023942016, 0.021547815, 9.890448,0.0, 5.326322E-4, 0.0,0.017772729, -0.0026813522, 0.08387947,Lying
0.02873042, 0.035913024, 9.890448,5.326322E-4, 0.0, 0.0,0.0104877995, -0.009882553, 0.08627319,Lying
0.021547815, 0.02873042, 9.892841,0.0010652645, 5.326322E-4, -5.326322E-4,0.008106449, -0.014782883, 0.09106159,Lying
0.019153614, 0.023942016, 9.89763,0.0, 0.0015978967, 5.326322E-4,0.005949339, -0.009908864, 0.08627319,Lying
0.016759412, 0.02873042, 9.892841,-5.326322E-4, 5.326322E-4, 5.326322E-4,0.013150647, -0.00971899, 0.088666916,Lying
0.023942016, 0.02873042, 9.895236,-5.326322E-4, -0.0010652645, 0.0,0.008082176, -0.011928376, 0.088666916,Lying
0.019153614, 0.02633622, 9.895236,0.0010652645, 0.0, 0.0015978967,8.4549375E-4, -1.0581687E-4, 0.07669544,Lying
0.011971008, 0.038307227, 9.883265,0.002130529, 5.326322E-4, -5.326322E-4,0.012882703, -0.0076691546, 0.08627415,Lying
0.023942016, 0.031124622, 9.892841,0.0, 0.0, 5.326322E-4,0.017565634, -0.017143188, 0.09106159,Lying
0.02873042, 0.021547815, 9.89763,-0.0010652645, -5.326322E-4, 5.326322E-4,0.012565655, -0.021594139, 0.07909107,Lying
0.023942016, 0.016759412, 9.885659,0.0, 0.0, 0.0,0.01009239, -0.004753135, 0.09584904,Lying
0.021547815, 0.033518825, 9.902418,5.326322E-4, 0.0, 0.0,0.0028608087, -0.004802864, 0.10542679,Lying
0.01436521, 0.033518825, 9.911995,0.0010652645, -0.0015978967, 0.0,0.009664535, -0.009724831, 0.09584999,Lying
0.021547815, 0.02873042, 9.902418,5.326322E-4, 0.0, 0.0010652645,0.007210305, -1.9869581E-4, 0.09824562,Lying
0.019153614, 0.038307227, 9.904813,5.326322E-4, 0.0010652645, 0.0010652645,0.0073654735, -0.0026561916, 0.079092026,Lying
0.019153614, 0.035913024, 9.885659,0.0015978967, -0.0010652645, 0.0,0.004762452, -0.0029694326, 0.08867073,Lying
0.016759412, 0.035913024, 9.895236,0.0010652645, 0.0015978967, -5.326322E-4,-0.0045286245, -0.019869648, 0.08388233,Lying
0.007182605, 0.019153614, 9.890448,0.0015978967, -5.326322E-4, 5.326322E-4,0.009700508, -0.0153278075, 0.08867073,Lying
0.021547815, 0.023942016, 9.895236,5.326322E-4, -0.0015978967, 5.326322E-4,0.011740361, -0.01057495, 0.103037834,Lying
0.023942016, 0.02873042, 9.909601,5.326322E-4, 0.0, -5.326322E-4,0.0021377048, -0.010625539, 0.08627796,Lying
0.01436521, 0.02873042, 9.892841,0.0, 5.326322E-4, 5.326322E-4,0.0022185948, -0.010569794, 0.08867264,Lying
0.01436521, 0.02873042, 9.895236,5.326322E-4, 5.326322E-4, -5.326322E-4,0.0070719523, -0.017758554, 0.103037834,Lying
0.019153614, 0.021547815, 9.909601,0.0, -0.0010652645, 0.0010652645,0.0044211596, -0.022394361, 0.100642204,Lying
0.016759412, 0.016759412, 9.907207,5.326322E-4, 0.002130529, 0.0010652645,0.0024050837, -0.005625624, 0.09345913,Lying
0.01436521, 0.033518825, 9.900024,0.0010652645, -5.326322E-4, -5.326322E-4,0.0022693286, -0.02007046, 0.09106541,Lying
0.01436521, 0.019153614, 9.89763,0.0010652645, 0.0, -5.326322E-4,0.016561607, -0.017721312, 0.098249435,Lying
0.02873042, 0.021547815, 9.904813,5.326322E-4, -0.0010652645, 0.0015978967,0.0043131867, -0.024805792, 0.09106541,Lying
0.016759412, 0.01436521, 9.89763,5.326322E-4, 0.0, 0.0010652645,0.011419821, -0.010381544, 0.09106541,Lying
0.023942016, 0.02873042, 9.89763,0.0, 0.0, 0.0,0.0065572057, -0.01739238, 0.08867073,Lying
0.019153614, 0.021547815, 9.895236,0.0015978967, 0.0010652645, -5.326322E-4,0.00430937, -0.010375923, 0.08627701,Lying
0.016759412, 0.02873042, 9.892841,0.0010652645, 0.002130529, 0.0010652645,-0.004878556, -0.008087099, 0.08627701,Lying
0.007182605, 0.031124622, 9.892841,0.0010652645, -0.0010652645, 5.326322E-4,0.006858659, -0.008226376, 0.09346104,Lying
0.019153614, 0.031124622, 9.900024,5.326322E-4, 0.0, 0.0,0.011595008, -0.008237325, 0.08867264,Lying
0.023942016, 0.031124622, 9.895236,0.0, 5.326322E-4, 0.0,0.0044683106, -0.017704567, 0.10064316,Lying
0.016759412, 0.021547815, 9.907207,5.326322E-4, 0.0010652645, -5.326322E-4,0.014179321, -0.015288658, 0.095853806,Lying
0.02633622, 0.023942016, 9.902418,5.326322E-4, 0.0, 0.0,-2.3478922E-4, -0.010495191, 0.088671684,Lying
0.011971008, 0.02873042, 9.895236,0.0, 0.0, 0.0,0.009277196, -0.01515175, 0.088671684,Lying
0.021547815, 0.023942016, 9.895236,0.0010652645, 0.0015978967, 5.326322E-4,0.004756051, -9.210631E-4, 0.07670021,Lying
0.016759412, 0.038307227, 9.883265,5.326322E-4, 5.326322E-4, 0.0,0.016742267, -0.02243981, 0.095853806,Lying
0.02873042, 0.016759412, 9.902418,0.0, -5.326322E-4, 0.0,0.004593514, -0.012735739, 0.09106445,Lying
0.016759412, 0.02633622, 9.89763,5.326322E-4, 5.326322E-4, 5.326322E-4,0.009426719, -0.012743518, 0.09824753,Lying
0.021547815, 0.02633622, 9.904813,0.0, 5.326322E-4, 0.0,0.0046713036, -0.015001934, 0.09106445,Lying
0.016759412, 0.023942016, 9.89763,5.326322E-4, 5.326322E-4, 0.0,0.0023152689, -0.022107298, 0.09585285,Lying
0.01436521, 0.016759412, 9.902418,0.0, 5.326322E-4, 0.0,0.009540581, -0.014783613, 0.08388138,Lying
0.021547815, 0.023942016, 9.890448,0.0, -5.326322E-4, 5.326322E-4,0.0045970343, -0.009878585, 0.093458176,Lying
0.016759412, 0.02873042, 9.900024,5.326322E-4, -5.326322E-4, 0.0,0.006830643, -0.019416913, 0.093458176,Lying
0.019153614, 0.019153614, 9.900024,0.0010652645, 0.0010652645, 5.326322E-4,0.009367028, -0.012304321, 0.08866978,Lying
0.021547815, 0.02633622, 9.895236,0.002130529, 5.326322E-4, 0.0,0.0022481019, -0.0030608699, 0.08867073,Lying
0.01436521, 0.035913024, 9.895236,-5.326322E-4, -5.326322E-4, 5.326322E-4,0.0021181041, -0.0052958727, 0.081487656,Lying
0.01436521, 0.033518825, 9.888053,0.0010652645, 5.326322E-4, 5.326322E-4,0.011757803, -0.017399168, 0.086276054,Lying
0.023942016, 0.021547815, 9.892841,-5.326322E-4, -5.326322E-4, 0.0,0.004436223, -0.007653173, 0.093458176,Lying
0.016759412, 0.031124622, 9.900024,0.0, -0.0010652645, -5.326322E-4,0.004191421, -0.019531116, 0.0814867,Lying
0.016759412, 0.019153614, 9.888053,0.0, 0.0010652645, -5.326322E-4,0.011523011, -0.012236532, 0.0910635,Lying
0.023942016, 0.02633622, 9.89763,0.0, 0.0, 5.326322E-4,0.011464408, -0.002586633, 0.0814867,Lying
0.023942016, 0.035913024, 9.888053,-5.326322E-4, 0.0, 0.0010652645,0.006619038, -0.014370184, 0.076696396,Lying
0.019153614, 0.023942016, 9.883265,-5.326322E-4, -5.326322E-4, 0.0,0.0016942937, -0.0046378486, 0.09106159,Lying
0.01436521, 0.033518825, 9.89763,0.0010652645, 0.0010652645, -0.0010652645,0.0042646006, -0.00957693, 0.09584999,Lying
0.016759412, 0.02873042, 9.902418,0.0010652645, 5.326322E-4, 0.0010652645,0.004341948, -0.0073447675, 0.10063934,Lying
0.016759412, 0.031124622, 9.907207,0.0010652645, 0.0, 5.326322E-4,0.009088795, -0.017053729, 0.0814867,Lying
0.021547815, 0.021547815, 9.888053,0.0015978967, 0.0010652645, 0.0,0.014011683, -0.0076950267, 0.08388233,Lying
0.02633622, 0.031124622, 9.890448,0.0010652645, 5.326322E-4, 5.326322E-4,0.0044736667, -0.012590267, 0.09585285,Lying
0.016759412, 0.02633622, 9.902418,5.326322E-4, -0.0010652645, 0.0,0.016155463, -0.007817261, 0.10064125,Lying
0.02873042, 0.031124622, 9.907207,0.0, 0.0, 0.0010652645,0.0041176407, -0.012512948, 0.086276054,Lying
0.016759412, 0.02633622, 9.892841,5.326322E-4, 5.326322E-4, 0.0,0.008950313, -0.010142902, 0.09106445,Lying
0.021547815, 0.02873042, 9.89763,5.326322E-4, 0.0010652645, 5.326322E-4,-0.0028554434, -0.017324964, 0.09824753,Lying
0.009576807, 0.021547815, 9.904813,-5.326322E-4, -0.0010652645, 0.0015978967,-0.0054771085, -0.01949535, 0.09106445,Lying
0.007182605, 0.019153614, 9.89763,0.0, 5.326322E-4, 5.326322E-4,0.013743592, -0.0026571453, 0.0862751,Lying
0.02633622, 0.035913024, 9.892841,5.326322E-4, -5.326322E-4, 5.326322E-4,0.00164265, -0.0027069896, 0.07191086,Lying
0.01436521, 0.035913024, 9.878476,0.0, -0.0010652645, 0.0,0.0038280357, -0.0074953884, 0.09106445,Lying
0.016759412, 0.031124622, 9.89763,-5.326322E-4, -5.326322E-4, -0.0010652645,0.006085594, -0.019274764, 0.0814867,Lying
0.019153614, 0.019153614, 9.888053,0.0, 0.0, 5.326322E-4,0.008441254, -0.009620039, 0.0814867,Lying
0.021547815, 0.02873042, 9.888053,5.326322E-4, -0.0010652645, -5.326322E-4,0.0010243943, -0.004874766, 0.11261177,Lying
0.01436521, 0.033518825, 9.919178,0.0, 0.0, 5.326322E-4,0.005812388, -0.0024804287, 0.0862751,Lying
0.019153614, 0.035913024, 9.892841,0.0010652645, 0.0, 0.0,0.008167223, -0.021758137, 0.07909393,Lying
0.021547815, 0.016759412, 9.885659,5.326322E-4, 0.0010652645, 0.0,0.005945676, -0.005039204, 0.08388138,Lying
0.019153614, 0.033518825, 9.890448,-5.326322E-4, 5.326322E-4, 0.0,0.0036197016, -0.014432583, 0.0910635,Lying
0.016759412, 0.023942016, 9.89763,0.0, 5.326322E-4, 0.0010652645,0.015624146, -0.01432636, 0.08866882,Lying
0.02873042, 0.023942016, 9.895236,-5.326322E-4, -0.0010652645, 5.326322E-4,0.0010025408, -0.011731617, 0.08627415,Lying
0.01436521, 0.02633622, 9.892841,0.0, -0.0010652645, 5.326322E-4,0.005541281, -0.0068660565, 0.091062546,Lying
0.019153614, 0.031124622, 9.89763,-5.326322E-4, 0.0015978967, 5.326322E-4,0.010605822, -0.011494175, 0.08387947,Lying
0.023942016, 0.02633622, 9.890448,0.0010652645, -0.0010652645, 0.0010652645,0.007940334, -0.023547322, 0.09106159,Lying
0.021547815, 0.01436521, 9.89763,0.0010652645, 0.0, 5.326322E-4,-0.001675982, -0.016445817, 0.083880424,Lying
0.011971008, 0.021547815, 9.890448,0.0015978967, -5.326322E-4, 0.0,0.00536404, -0.007075187, 0.08866978,Lying
0.019153614, 0.031124622, 9.895236,5.326322E-4, 0.0015978967, 0.0,0.010414619, -0.0046987385, 0.1006403,Lying
0.023942016, 0.033518825, 9.907207,5.326322E-4, 5.326322E-4, 0.0,0.008066463, -0.019055564, 0.08866978,Lying
0.021547815, 0.019153614, 9.895236,0.0, 0.0010652645, 0.0,0.0034439294, -0.0070017017, 0.1006403,Lying
0.016759412, 0.031124622, 9.907207,0.0, -5.326322E-4, 0.0,9.200806E-4, -0.0045529045, 0.083880424,Lying
0.01436521, 0.033518825, 9.890448,-5.326322E-4, -5.326322E-4, 0.0,0.0055747973, -0.009176893, 0.08866787,Lying
0.019153614, 0.02873042, 9.895236,0.0010652645, 0.0, 0.0,0.005574799, -0.0045973063, 0.08866978,Lying
0.019153614, 0.033518825, 9.895236,5.326322E-4, 0.0015978967, 5.326322E-4,0.013025563, -0.011825766, 0.098246574,Lying
0.02633622, 0.02633622, 9.904813,-5.326322E-4, 0.0015978967, 0.0,0.006107757, -0.009263137, 0.08387947,Lying
0.019153614, 0.02873042, 9.890448,5.326322E-4, -0.0010652645, 0.0,0.015413064, -0.011692211, 0.091062546,Lying
0.02873042, 0.02633622, 9.89763,0.0010652645, 0.0, 5.326322E-4,0.0057687787, -0.016589692, 0.093458176,Lying
0.019153614, 0.021547815, 9.900024,0.0, 5.326322E-4, 5.326322E-4,0.017754335, -0.011701364, 0.08148575,Lying
0.031124622, 0.02633622, 9.888053,5.326322E-4, 0.0, 5.326322E-4,0.017636426, -0.014080998, 0.095850945,Lying
0.031124622, 0.023942016, 9.902418,5.326322E-4, -0.0010652645, 0.0,-0.0017780587, -0.0069331527, 0.08866882,Lying
0.011971008, 0.031124622, 9.895236,0.0, 0.002130529, 5.326322E-4,0.010550491, 3.0276924E-4, 0.08866882,Lying
0.023942016, 0.038307227, 9.895236,0.0010652645, 0.0, 0.0,0.0033152336, -0.0046431683, 0.0862751,Lying
0.016759412, 0.033518825, 9.892841,0.0010652645, -5.326322E-4, 5.326322E-4,-0.0063663865, -0.009640237, 0.0910635,Lying
0.007182605, 0.02873042, 9.89763,0.0010652645, -5.326322E-4, 5.326322E-4,0.0054712314, -0.019343514, 0.08867073,Lying
0.019153614, 0.019153614, 9.895236,0.0010652645, 5.326322E-4, 5.326322E-4,0.012709365, -0.014668632, 0.09345913,Lying
0.02633622, 0.023942016, 9.900024,0.0015978967, 0.0010652645, 5.326322E-4,0.015229135, -0.010080377, 0.08148861,Lying
0.02873042, 0.02873042, 9.888053,5.326322E-4, -0.0010652645, -5.326322E-4,0.014932481, -0.010085119, 0.07430744,Lying
0.02873042, 0.02873042, 9.880871,5.326322E-4, 0.0010652645, -5.326322E-4,0.0031033074, -0.0100987945, 0.08627796,Lying
0.016759412, 0.02873042, 9.892841,0.0, 5.326322E-4, 0.0,0.007921634, -0.014776353, 0.09106541,Lying
0.021547815, 0.023942016, 9.89763,0.0010652645, 5.326322E-4, 5.326322E-4,0.0055754837, -0.007718846, 0.09585476,Lying
0.019153614, 0.031124622, 9.902418,5.326322E-4, -5.326322E-4, 5.326322E-4,0.007816116, -0.005365189, 0.08388424,Lying
0.021547815, 0.033518825, 9.890448,5.326322E-4, -0.0010652645, 0.0,0.009949709, -0.0125824325, 0.09825039,Lying
0.023942016, 0.02633622, 9.904813,5.326322E-4, 5.326322E-4, 0.0010652645,0.00998909, -0.012600932, 0.086278915,Lying
0.023942016, 0.02633622, 9.892841,5.326322E-4, 5.326322E-4, -5.326322E-4,0.002862594, -0.015012283, 0.098249435,Lying
0.016759412, 0.023942016, 9.904813,-5.326322E-4, -5.326322E-4, 0.0015978967,0.0075129317, -4.996732E-4, 0.076701164,Lying
0.021547815, 0.038307227, 9.883265,0.0010652645, 5.326322E-4, -5.326322E-4,0.0051989136, -0.0054653697, 0.08867359,Lying
0.019153614, 0.033518825, 9.895236,5.326322E-4, -0.0010652645, 0.0,0.0073501663, -0.017483318, 0.086278915,Lying
0.021547815, 0.021547815, 9.892841,0.0, -0.0010652645, 5.326322E-4,0.0070943637, -0.007833086, 0.08388519,Lying
0.021547815, 0.031124622, 9.890448,0.0, 5.326322E-4, 5.326322E-4,0.0047579743, -0.007759329, 0.10064411,Lying
0.019153614, 0.031124622, 9.907207,0.0010652645, 0.0, 0.0,0.0047155274, -0.017454261, 0.09585571,Lying
0.019153614, 0.021547815, 9.902418,0.0, 5.326322E-4, 5.326322E-4,0.014317823, -0.017322248, 0.06952,Lying
0.02873042, 0.021547815, 9.876082,5.326322E-4, -0.0010652645, -5.326322E-4,-3.0476414E-4, -0.014908474, 0.09106827,Lying
0.01436521, 0.023942016, 9.89763,0.0, -5.326322E-4, -5.326322E-4,0.004342365, -0.019582342, 0.091067314,Lying
0.019153614, 0.019153614, 9.89763,0.0015978967, 0.002130529, 5.326322E-4,0.0118745025, -0.007794395, 0.09585571,Lying
0.02633622, 0.031124622, 9.902418,0.0, -5.326322E-4, -5.326322E-4,0.0021382812, -0.019614901, 0.08867359,Lying
0.016759412, 0.019153614, 9.895236,0.0, 0.0, -5.326322E-4,-0.0050703622, -0.014675189, 0.08148956,Lying
0.009576807, 0.023942016, 9.888053,-5.326322E-4, 0.0015978967, 0.0010652645,0.0071835145, -0.0072920434, 0.09824753,Lying
0.021547815, 0.031124622, 9.904813,0.0010652645, 0.0, 5.326322E-4,0.009531031, -0.019346379, 0.09824848,Lying
0.023942016, 0.019153614, 9.904813,0.0, 5.326322E-4, 5.326322E-4,0.007190083, -0.016821006, 0.081487656,Lying
0.021547815, 0.021547815, 9.888053,-5.326322E-4, -5.326322E-4, 5.326322E-4,-0.002511682, 1.0668114E-4, 0.086276054,Lying
0.011971008, 0.038307227, 9.892841,0.0010652645, 0.0010652645, 0.0010652645,0.002455376, -0.009582618, 0.08388233,Lying
0.016759412, 0.02873042, 9.890448,5.326322E-4, 0.0015978967, 5.326322E-4,0.0027686702, -0.0025044307, 0.08867073,Lying
0.016759412, 0.035913024, 9.895236,0.0010652645, 0.0, 0.0,0.0027686702, -0.0027132481, 0.09106636,Lying
0.016759412, 0.035913024, 9.89763,0.0, 0.0, 0.0,0.00514833, -0.014646895, 0.088671684,Lying
0.019153614, 0.023942016, 9.895236,5.326322E-4, 0.0010652645, 0.0010652645,-0.0018262835, -0.005174201, 0.07909489,Lying
0.011971008, 0.033518825, 9.885659,0.0010652645, -5.326322E-4, 5.326322E-4,4.6309736E-4, -0.00298867, 0.08148956,Lying
0.01436521, 0.035913024, 9.888053,-5.326322E-4, -5.326322E-4, 5.326322E-4,0.009920718, -0.017212024, 0.08148956,Lying
0.023942016, 0.021547815, 9.888053,5.326322E-4, -0.0010652645, -5.326322E-4,0.009678691, -0.010068884, 0.08867264,Lying
0.023942016, 0.02873042, 9.895236,5.326322E-4, 0.0, 5.326322E-4,0.019189008, -5.403161E-4, 0.08148956,Lying
0.033518825, 0.038307227, 9.888053,0.0, 5.326322E-4, 0.0,9.327661E-5, -0.017226717, 0.076701164,Lying
0.01436521, 0.021547815, 9.883265,0.0010652645, 0.0, 0.0,0.0072309393, -0.0077927373, 0.08388519,Lying
0.021547815, 0.031124622, 9.890448,-0.0010652645, 5.326322E-4, 5.326322E-4,0.007281284, -0.009901801, 0.08867264,Lying
0.021547815, 0.02873042, 9.895236,0.0, 0.0, 5.326322E-4,0.009605835, -0.019364625, 0.07670021,Lying
0.023942016, 0.019153614, 9.883265,0.0, 0.0015978967, 5.326322E-4,0.0026876563, -0.019254725, 0.08867073,Lying
0.016759412, 0.019153614, 9.895236,-5.326322E-4, 0.0, -5.326322E-4,0.0050416496, -0.007095609, 0.07909393,Lying
0.019153614, 0.031124622, 9.885659,0.0, 0.0, 5.326322E-4,0.0050136913, -0.007042203, 0.0862751,Lying
0.019153614, 0.031124622, 9.892841,-5.326322E-4, -5.326322E-4, 0.0010652645,0.012033734, -0.016416354, 0.0910635,Lying
0.02633622, 0.021547815, 9.89763,5.326322E-4, 0.0010652645, 0.0,0.0026284885, -0.0044862404, 0.0958519,Lying
0.016759412, 0.033518825, 9.902418,0.002130529, 5.326322E-4, 0.0,0.009866761, -0.009620329, 0.09345913,Lying
0.023942016, 0.02873042, 9.900024,5.326322E-4, 0.0, 0.0,2.5307294E-4, -0.012040306, 0.086276054,Lying
0.01436521, 0.02633622, 9.892841,0.0, 0.0, 5.326322E-4,-0.0021415371, -0.002463352, 0.07669926,Lying
0.011971008, 0.035913024, 9.883265,5.326322E-4, 0.0010652645, 0.0,0.0052332412, -0.012101192, 0.07909393,Lying
0.019153614, 0.02633622, 9.885659,-5.326322E-4, -0.0010652645, -5.326322E-4,0.014566455, -0.0071598105, 0.09106445,Lying
0.02873042, 0.031124622, 9.89763,-5.326322E-4, 0.0015978967, -5.326322E-4,0.010042493, -0.007001139, 0.0862751,Lying
0.023942016, 0.031124622, 9.892841,0.002130529, -0.0010652645, -0.0010652645,0.007414113, -0.0073888004, 0.08148861,Lying
0.021547815, 0.031124622, 9.888053,0.0, 5.326322E-4, 0.0,-0.0020584445, -0.0049945973, 0.083883286,Lying
0.011971008, 0.033518825, 9.890448,5.326322E-4, -0.0010652645, 5.326322E-4,0.0025207354, -0.007493049, 0.076701164,Lying
0.016759412, 0.031124622, 9.883265,-5.326322E-4, -0.0010652645, 0.0010652645,0.0023110975, -0.0025999323, 0.07430744,Lying
0.016759412, 0.035913024, 9.880871,0.0015978967, 5.326322E-4, 0.0,0.0024155052, -0.0029131584, 0.076701164,Lying
0.016759412, 0.035913024, 9.883265,0.0010652645, -5.326322E-4, -5.326322E-4,0.01186464, -0.017447216, 0.09585571,Lying
0.02633622, 0.021547815, 9.902418,0.0, 5.326322E-4, 5.326322E-4,0.0023605032, -0.014979243, 0.08388519,Lying
0.016759412, 0.023942016, 9.890448,5.326322E-4, 5.326322E-4, 0.0,0.0024426505, -0.007845137, 0.08867359,Lying
0.016759412, 0.031124622, 9.895236,5.326322E-4, 0.0, -5.326322E-4,0.009589707, -0.01266649, 0.086278915,Lying
0.023942016, 0.02633622, 9.892841,0.0010652645, -0.0015978967, 0.0,-3.3183955E-4, -0.024716664, 0.08149147,Lying
0.01436521, 0.01436521, 9.888053,0.0, 0.0, 0.0010652645,-0.0027419701, -0.010239048, 0.07430935,Lying
0.011971008, 0.02873042, 9.880871,0.0, 5.326322E-4, 0.0,0.0069104573, -0.017292233, 0.074308395,Lying
0.021547815, 0.021547815, 9.880871,5.326322E-4, 0.0, 0.0,0.0021010758, -0.002947878, 0.07191467,Lying
0.016759412, 0.035913024, 9.878476,0.0, 0.0, 0.0,-3.0416343E-4, -0.0076775067, 0.08149052,Lying
0.01436521, 0.031124622, 9.888053,5.326322E-4, 0.0, -0.0010652645,0.009273473, -5.996153E-4, 0.08388615,Lying
0.023942016, 0.038307227, 9.890448,0.0010652645, 5.326322E-4, 5.326322E-4,0.009377466, -0.0055966824, 0.088674545,Lying
0.023942016, 0.033518825, 9.895236,5.326322E-4, -0.0010652645, 5.326322E-4,-0.0028027762, -0.0080951415, 0.0982523,Lying
0.011971008, 0.031124622, 9.904813,5.326322E-4, 5.326322E-4, 0.0010652645,0.009237496, -0.022477357, 0.0934639,Lying
0.023942016, 0.016759412, 9.900024,0.0010652645, 5.326322E-4, 0.0010652645,-0.0026480677, -0.010636652, 0.081492424,Lying
0.011971008, 0.02873042, 9.888053,5.326322E-4, -0.0010652645, 5.326322E-4,0.016248029, -0.01304014, 0.069521904,Lying
0.031124622, 0.02633622, 9.876082,0.0, 5.326322E-4, 5.326322E-4,-4.3759774E-4, -0.01056459, 0.081492424,Lying
0.01436521, 0.02873042, 9.888053,0.0010652645, 5.326322E-4, 0.0,0.0020365138, -0.010697508, 0.091070175,Lying
0.016759412, 0.02873042, 9.89763,-5.326322E-4, 0.0, 0.0010652645,0.0020124204, -0.015291039, 0.076704025,Lying
0.016759412, 0.023942016, 9.883265,0.0, -5.326322E-4, 0.0010652645,-0.005280273, -0.010429023, 0.09106922,Lying
0.009576807, 0.02873042, 9.89763,0.0, -5.326322E-4, 0.0010652645,0.013740021, -0.012741137, 0.06952095,Lying
0.02873042, 0.02633622, 9.876082,0.0010652645, 5.326322E-4, 5.326322E-4,-0.005321279, -0.017639516, 0.07191563,Lying
0.009576807, 0.021547815, 9.878476,0.0010652645, 5.326322E-4, 5.326322E-4,0.01149987, -0.015313804, 0.0886755,Lying
0.02633622, 0.023942016, 9.895236,0.0, 0.0, 0.0,0.006665282, -0.010400141, 0.08628082,Lying
0.021547815, 0.02873042, 9.892841,0.0010652645, -0.0010652645, -5.326322E-4,-0.0055263815, -0.01530505, 0.08149338,Lying
0.009576807, 0.023942016, 9.888053,0.0015978967, 0.0010652645, 0.0,0.006624545, -0.01548823, 0.08628178,Lying
0.021547815, 0.023942016, 9.892841,5.326322E-4, 0.0, -5.326322E-4,-5.773194E-4, -0.0082918815, 0.079099655,Lying
0.01436521, 0.031124622, 9.885659,5.326322E-4, 5.326322E-4, 5.326322E-4,0.006680319, -0.01546257, 0.06952286,Lying
0.021547815, 0.023942016, 9.876082,-5.326322E-4, 0.0010652645, 5.326322E-4,0.009241679, -0.008077454, 0.0790987,Lying
0.023942016, 0.031124622, 9.885659,0.0015978967, 5.326322E-4, 0.0,0.00691244, -0.010700664, 0.079099655,Lying
0.021547815, 0.02873042, 9.885659,0.0, 0.0, 0.0010652645,-2.9621925E-4, -0.015405893, 0.0838871,Lying
0.01436521, 0.023942016, 9.890448,0.0015978967, 0.0010652645, 5.326322E-4,0.009445623, -0.013220441, 0.0886755,Lying
0.023942016, 0.02633622, 9.895236,5.326322E-4, 5.326322E-4, 0.0,0.007118686, -0.006071329, 0.083888054,Lying
0.021547815, 0.033518825, 9.890448,0.0010652645, -5.326322E-4, 0.0,0.0021975674, -0.011000941, 0.08388901,Lying
0.016759412, 0.02873042, 9.890448,0.0010652645, 0.0010652645, 5.326322E-4,-7.04173E-6, -0.008758083, 0.093465805,Lying
0.01436521, 0.031124622, 9.900024,0.0010652645, 0.0, 0.0,-3.111642E-5, -0.016031615, 0.08867741,Lying
0.01436521, 0.023942016, 9.895236,0.0010652645, 0.0, 0.0,0.0071225083, -0.01135649, 0.069524765,Lying
0.021547815, 0.02873042, 9.876082,0.0010652645, 0.0010652645, 5.326322E-4,0.0096929055, -0.016273547, 0.07191849,Lying
0.023942016, 0.023942016, 9.878476,0.0, -0.0015978967, 0.0015978967,0.0069350554, -0.011368783, 0.074313164,Lying
0.021547815, 0.02873042, 9.880871,-5.326322E-4, -5.326322E-4, 5.326322E-4,-0.0051523345, -0.0064242296, 0.07910156,Lying
0.009576807, 0.033518825, 9.885659,0.0, 5.326322E-4, -5.326322E-4,0.004509489, -0.018311271, 0.081495285,Lying
0.019153614, 0.021547815, 9.888053,0.0, 0.0, -5.326322E-4,-0.0026825275, -0.01582453, 0.07910061,Lying
0.011971008, 0.023942016, 9.885659,5.326322E-4, 0.0, 0.0,0.01164322, -0.022957152, 0.07431221,Lying
0.02633622, 0.016759412, 9.880871,0.0, -5.326322E-4, 5.326322E-4,0.0019342471, -0.013256792, 0.08388901,Lying
0.016759412, 0.02633622, 9.890448,0.002130529, 5.326322E-4, 0.0010652645,-0.0051542567, -0.018322604, 0.09346676,Lying
0.009576807, 0.021547815, 9.900024,0.0010652645, -5.326322E-4, -5.326322E-4,0.0066938726, -0.006455552, 0.08388996,Lying
0.021547815, 0.033518825, 9.890448,0.0015978967, 5.326322E-4, 0.0010652645,0.0043848176, -0.009084616, 0.09825611,Lying
0.019153614, 0.031124622, 9.904813,5.326322E-4, 0.0015978967, 0.0010652645,-0.009666646, -0.011509327, 0.08867836,Lying
0.0047884034, 0.02873042, 9.895236,0.0015978967, 5.326322E-4, 0.0,0.009574232, -0.014124706, 0.07670879,Lying
0.023942016, 0.02633622, 9.883265,5.326322E-4, 0.0, 0.0010652645,0.007152931, -0.0141322315, 0.08149719,Lying
0.021547815, 0.02633622, 9.888053,0.0010652645, 0.0010652645, 0.0010652645,0.0025453512, -0.011842785, 0.09107399,Lying
0.016759412, 0.02873042, 9.89763,5.326322E-4, 5.326322E-4, -5.326322E-4,0.0050070584, -0.021375421, 0.06952667,Lying
0.019153614, 0.019153614, 9.876082,0.0015978967, 5.326322E-4, 5.326322E-4,-0.0044792574, -0.014379799, 0.08628559,Lying
0.009576807, 0.02633622, 9.892841,0.0010652645, -5.326322E-4, 5.326322E-4,0.004973594, -0.007300824, 0.081498146,Lying
0.019153614, 0.033518825, 9.888053,5.326322E-4, 5.326322E-4, -0.0010652645,0.0050589666, -0.0049409084, 0.08149719,Lying
0.019153614, 0.035913024, 9.888053,5.326322E-4, 0.0, 0.0010652645,-0.009305161, -0.019310175, 0.07670879,Lying
0.0047884034, 0.021547815, 9.883265,0.0, 0.0, 5.326322E-4,-0.0021229908, 0.0022377819, 0.08389187,Lying
0.011971008, 0.04309563, 9.890448,0.0010652645, -5.326322E-4, 5.326322E-4,1.702318E-4, -0.019445358, 0.0862875,Lying
0.01436521, 0.021547815, 9.892841,5.326322E-4, 0.0, -5.326322E-4,0.0025635883, -0.012287231, 0.0814991,Lying
0.016759412, 0.02873042, 9.888053,0.0010652645, 0.0, 5.326322E-4,1.6777962E-4, -0.017177433, 0.095864296,Lying
0.01436521, 0.023942016, 9.902418,5.326322E-4, 0.0010652645, 0.0,0.0051496085, -0.01952977, 0.07910538,Lying
0.019153614, 0.021547815, 9.885659,0.0010652645, 0.0, 0.0,0.0027375817, -0.01480395, 0.09347057,Lying
0.016759412, 0.02633622, 9.900024,5.326322E-4, 0.0, 0.0,0.005109179, -0.0076142736, 0.083893776,Lying
0.019153614, 0.033518825, 9.890448,-5.326322E-4, 5.326322E-4, 5.326322E-4,0.005186013, -0.012194829, 0.07910442,Lying
0.019153614, 0.02873042, 9.885659,5.326322E-4, 0.0, -5.326322E-4,0.005154494, -0.009803183, 0.09107494,Lying
0.019153614, 0.031124622, 9.89763,5.326322E-4, 0.0, 5.326322E-4,0.014665572, -0.016957581, 0.081498146,Lying
0.02873042, 0.023942016, 9.888053,-5.326322E-4, -5.326322E-4, 0.0,0.0073306235, -0.0095821135, 0.08628559,Lying
0.021547815, 0.031124622, 9.892841,0.0, 0.0010652645, 5.326322E-4,3.2334868E-4, -0.011895778, 0.09107399,Lying
0.01436521, 0.02873042, 9.89763,-0.0015978967, -5.326322E-4, 0.0010652645,1.9670743E-4, -0.011511711, 0.08388996,Lying
0.01436521, 0.02873042, 9.890448,-0.0010652645, 0.0, 5.326322E-4,0.012126899, -0.013612423, 0.07670593,Lying
0.02633622, 0.02633622, 9.883265,-5.326322E-4, 0.0015978967, 5.326322E-4,0.014758121, -0.015784193, 0.0790987,Lying
0.02873042, 0.023942016, 9.885659,0.0, 5.326322E-4, 0.0,0.0028286893, -0.015658211, 0.0934639,Lying
0.016759412, 0.023942016, 9.900024,5.326322E-4, 0.0010652645, -0.0010652645,0.010155452, -0.0036989003, 0.0838871,Lying
0.023942016, 0.035913024, 9.890448,-0.0015978967, 0.0010652645, 5.326322E-4,0.0031309072, -0.012875758, 0.091067314,Lying
0.016759412, 0.02633622, 9.89763,0.0010652645, -5.326322E-4, 0.0010652645,0.0077728406, -0.010621095, 0.08627987,Lying
0.021547815, 0.02873042, 9.892841,-0.0010652645, 5.326322E-4, 0.0,0.007840077, -0.0031823777, 0.07670212,Lying
0.021547815, 0.035913024, 9.883265,0.0, 5.326322E-4, -5.326322E-4,0.012681927, -0.007918492, 0.08388424,Lying
0.02633622, 0.031124622, 9.890448,5.326322E-4, 0.0010652645, 5.326322E-4,0.0104233995, -0.012732483, 0.07909584,Lying
0.023942016, 0.02633622, 9.885659,0.0, 5.326322E-4, 0.0,0.0056666657, -0.019802973, 0.08627796,Lying
0.019153614, 0.019153614, 9.892841,-0.0010652645, 0.0, 5.326322E-4,0.008001073, -0.0027622953, 0.083883286,Lying
0.021547815, 0.035913024, 9.890448,-0.0010652645, 0.0015978967, -5.326322E-4,0.0010941168, -0.012067385, 0.0814867,Lying
0.01436521, 0.02633622, 9.888053,-0.0010652645, -5.326322E-4, 0.0010652645,0.012909804, -0.0046211556, 0.08866978,Lying
0.02633622, 0.033518825, 9.895236,-5.326322E-4, -0.0010652645, 0.0010652645,6.898502E-4, -0.018804122, 0.083880424,Lying
0.01436521, 0.019153614, 9.890448,5.326322E-4, 0.0015978967, 5.326322E-4,0.008145549, -0.006875403, 0.08866882,Lying
0.021547815, 0.031124622, 9.895236,-5.326322E-4, 0.0, 0.0010652645,0.010488231, -0.011488475, 0.081484795,Lying
0.023942016, 0.02633622, 9.888053,-5.326322E-4, 5.326322E-4, 5.326322E-4,0.0057532713, -0.016085899, 0.105425835,Lying
0.019153614, 0.021547815, 9.911995,5.326322E-4, 5.326322E-4, 5.326322E-4,0.0010295957, -0.01370462, 0.100637436,Lying
0.01436521, 0.023942016, 9.907207,-5.326322E-4, 5.326322E-4, 0.0010652645,0.003493227, -0.008732213, 0.08387852,Lying
0.016759412, 0.02873042, 9.890448,-5.326322E-4, -0.0010652645, 0.0,-0.0039125998, -0.01573175, 0.08866596,Lying
0.009576807, 0.021547815, 9.895236,-5.326322E-4, 0.0, 0.0,0.012812457, -0.0059785023, 0.09105873,Lying
0.02633622, 0.031124622, 9.89763,-5.326322E-4, -5.326322E-4, 0.0,0.0054845978, -0.012965668, 0.09584713,Lying
0.019153614, 0.023942016, 9.902418,-5.326322E-4, 5.326322E-4, 5.326322E-4,0.012715869, -0.005603496, 0.088664055,Lying
0.02633622, 0.031124622, 9.895236,0.0, -5.326322E-4, 5.326322E-4,0.012543946, -0.012702562, 0.06951046,Lying
0.02633622, 0.023942016, 9.876082,0.0, -5.326322E-4, 0.0,0.005216713, -0.007860916, 0.09345245,Lying
0.019153614, 0.02873042, 9.900024,-5.326322E-4, -5.326322E-4, 0.0,0.01222154, -0.014843734, 0.08626938,Lying
0.02633622, 0.021547815, 9.892841,-0.0010652645, 0.0015978967, 5.326322E-4,0.007683889, -0.014547395, 0.07908535,Lying
0.021547815, 0.021547815, 9.885659,0.0, 0.0010652645, 0.0,0.0030488772, -0.014448287, 0.09584427,Lying
0.016759412, 0.021547815, 9.902418,0.0, -0.002130529, 5.326322E-4,0.0049769115, -0.0071777087, 0.08387375,Lying
0.019153614, 0.02873042, 9.890448,0.0015978967, 0.0010652645, 0.0,0.002753268, -0.005026426, 0.06950855,Lying
0.016759412, 0.031124622, 9.876082,-5.326322E-4, -0.0015978967, -5.326322E-4,0.00481057, -0.009662725, 0.10063267,Lying
0.019153614, 0.02633622, 9.907207,0.0010652645, 5.326322E-4, 5.326322E-4,0.0025203964, -0.0026887767, 0.0790863,Lying
0.016759412, 0.033518825, 9.885659,0.0, 0.0, 0.0,-0.004662209, -0.012265585, 0.07669163,Lying
0.009576807, 0.023942016, 9.883265,0.0, 0.0, 5.326322E-4,0.009702613, -0.0026886277, 0.081480026,Lying
0.023942016, 0.033518825, 9.888053,0.0, 5.326322E-4, 5.326322E-4,0.009774822, -0.012214176, 0.09105587,Lying
0.023942016, 0.023942016, 9.89763,-5.326322E-4, 5.326322E-4, 5.326322E-4,-0.0020921621, -0.0073212106, 0.08866215,Lying
0.011971008, 0.02873042, 9.895236,0.0, 5.326322E-4, 0.0,0.0028006518, -0.009715408, 0.09105587,Lying
0.016759412, 0.02633622, 9.89763,-5.326322E-4, -5.326322E-4, -5.326322E-4,3.022626E-4, -0.007216798, 0.08866215,Lying
0.01436521, 0.02873042, 9.895236,5.326322E-4, 0.0, 5.326322E-4,0.005090286, -0.009715408, 0.08147907,Lying
0.019153614, 0.02633622, 9.888053,5.326322E-4, 0.0, 0.0,2.9139128E-4, -0.01216843, 0.09105587,Lying
0.01436521, 0.023942016, 9.89763,-0.0010652645, 0.0, -5.326322E-4,0.009850651, -0.011916537, 0.08626652,Lying
0.023942016, 0.023942016, 9.892841,0.0010652645, -0.0010652645, -0.0010652645,0.011984111, -0.012032654, 0.09105587,Lying
0.02633622, 0.023942016, 9.89763,0.0010652645, -0.0015978967, 0.0,0.0116126295, -0.012151569, 0.0838747,Lying
0.02633622, 0.023942016, 9.890448,0.0, 5.326322E-4, -5.326322E-4,0.002096071, -0.016842753, 0.08147907,Lying
0.016759412, 0.019153614, 9.888053,0.0010652645, 0.0, 0.0010652645,0.009225447, -0.019329948, 0.09584522,Lying
0.023942016, 0.016759412, 9.902418,-5.326322E-4, -5.326322E-4, 0.0,0.0066822786, -0.004778575, 0.1030283,Lying
0.021547815, 0.031124622, 9.909601,-5.326322E-4, -5.326322E-4, 5.326322E-4,0.0065348977, -0.009387415, 0.09584427,Lying
0.021547815, 0.02633622, 9.902418,0.0, -5.326322E-4, -5.326322E-4,-0.0031682802, -0.011712037, 0.08626747,Lying
0.011971008, 0.023942016, 9.892841,5.326322E-4, 0.0, 5.326322E-4,0.011152975, -0.018894145, 0.08866215,Lying
0.02633622, 0.016759412, 9.895236,-0.0010652645, -5.326322E-4, 5.326322E-4,-9.512063E-4, -0.013793645, 0.09105587,Lying
0.01436521, 0.021547815, 9.89763,5.326322E-4, 0.0010652645, -5.326322E-4,0.0040195594, -0.004245788, 0.083872795,Lying
0.019153614, 0.031124622, 9.890448,0.0, 0.0010652645, 0.0,0.008978045, -0.0065694246, 0.08387184,Lying
0.023942016, 0.02873042, 9.890448,5.326322E-4, -5.326322E-4, 0.0,-7.033292E-4, -0.004279796, 0.074296,Lying
0.01436521, 0.031124622, 9.880871,0.0010652645, 0.0010652645, 0.0,0.009082292, -0.006882811, 0.08866215,Lying
0.023942016, 0.02873042, 9.895236,5.326322E-4, -0.0010652645, 5.326322E-4,0.013620338, -0.011723109, 0.10542107,Lying
0.02873042, 0.023942016, 9.911995,-5.326322E-4, 5.326322E-4, 5.326322E-4,0.0017337697, -0.00440887, 0.08626747,Lying
0.016759412, 0.031124622, 9.892841,0.0, 5.326322E-4, 5.326322E-4,0.006592611, -0.016321931, 0.083872795,Lying
0.021547815, 0.019153614, 9.890448,0.0, 0.0, 0.0,0.001775356, -0.009079114, 0.09105492,Lying
0.016759412, 0.02633622, 9.89763,5.326322E-4, -5.326322E-4, -5.326322E-4,-7.392112E-4, -0.013914267, 0.083872795,Lying
0.01436521, 0.021547815, 9.890448,-5.326322E-4, 0.0, 0.0010652645,0.006414799, -0.013727119, 0.081477165,Lying
0.021547815, 0.021547815, 9.888053,0.0010652645, -5.326322E-4, 5.326322E-4,-8.725906E-4, -0.0019647628, 0.09105587,Lying
0.01436521, 0.033518825, 9.89763,0.0015978967, 0.0, 0.0,0.0015065689, -0.016564406, 0.0886631,Lying
0.016759412, 0.019153614, 9.895236,0.0015978967, -5.326322E-4, 5.326322E-4,-0.008170001, -0.021565769, 0.08148098,Lying
0.007182605, 0.01436521, 9.888053,0.0010652645, 5.326322E-4, 0.0,0.0062899925, -0.0073093567, 0.083875656,Lying
0.021547815, 0.02873042, 9.890448,-5.326322E-4, -5.326322E-4, 5.326322E-4,0.006166336, -0.0071197245, 0.07908726,Lying
0.021547815, 0.02873042, 9.885659,0.0, -5.326322E-4, 0.0,0.006032465, -0.02374864, 0.09584522,Lying
0.021547815, 0.011971008, 9.902418,0.0, 0.0, 0.0,0.0060005756, -0.014055891, 0.08626747,Lying
0.021547815, 0.021547815, 9.892841,0.0010652645, -5.326322E-4, 0.0010652645,0.0058626886, -0.014155218, 0.0838747,Lying
0.021547815, 0.021547815, 9.890448,0.0010652645, -5.326322E-4, -5.326322E-4,0.0033384245, -0.007098878, 0.07908726,Lying
0.019153614, 0.02873042, 9.885659,0.0015978967, 0.0010652645, 0.0,0.0011331011, -0.012122709, 0.09105778,Lying
0.016759412, 0.023942016, 9.89763,0.0010652645, -5.326322E-4, 0.0,0.005789645, -0.0074607786, 0.076693535,Lying
0.021547815, 0.02873042, 9.883265,5.326322E-4, -5.326322E-4, 0.0,-0.001497372, -0.0027767904, 0.09345436,Lying
0.01436521, 0.033518825, 9.900024,5.326322E-4, 0.0010652645, -5.326322E-4,0.008263698, -0.019564608, 0.08866501,Lying
0.023942016, 0.016759412, 9.895236,0.0, -5.326322E-4, 0.0010652645,-0.001433623, -0.012302812, 0.08387756,Lying
0.01436521, 0.023942016, 9.890448,0.0010652645, -5.326322E-4, 0.0010652645,-0.0063266847, -0.010063503, 0.08387852,Lying
0.009576807, 0.02633622, 9.890448,0.0, 5.326322E-4, 0.0,0.005742172, -0.0076229256, 0.086271286,Lying
0.021547815, 0.02873042, 9.892841,-5.326322E-4, 5.326322E-4, 0.0,-0.0013360223, -3.3591315E-4, 0.08148193,Lying
0.01436521, 0.035913024, 9.888053,5.326322E-4, 0.0015978967, 0.0,0.0061598076, -0.012411326, 0.08627033,Lying
0.021547815, 0.023942016, 9.892841,-5.326322E-4, 0.0010652645, 5.326322E-4,-8.227397E-4, -0.017035585, 0.07669258,Lying
0.01436521, 0.019153614, 9.883265,0.0010652645, 0.0010652645, -5.326322E-4,0.0017713374, -0.007614849, 0.08148193,Lying
0.016759412, 0.02873042, 9.888053,5.326322E-4, 5.326322E-4, 5.326322E-4,0.011437646, -0.005294908, 0.07908821,Lying
0.02633622, 0.031124622, 9.885659,0.0, -5.326322E-4, 5.326322E-4,0.0041245883, -0.01719708, 0.07908821,Lying
0.019153614, 0.019153614, 9.885659,0.0010652645, -5.326322E-4, 5.326322E-4,0.0016097827, -0.0029964335, 0.07908821,Lying
0.016759412, 0.033518825, 9.885659,0.0010652645, 0.0, 0.0010652645,-7.989658E-4, -0.012716722, 0.079089165,Lying
0.01436521, 0.023942016, 9.885659,0.0, 0.0, 0.0,0.0039692875, -0.012632292, 0.086271286,Lying
0.019153614, 0.023942016, 9.892841,0.0, 5.326322E-4, -0.0010652645,0.0016634436, -0.007772686, 0.08866501,Lying
0.016759412, 0.02873042, 9.895236,0.0, -0.0010652645, 0.0,0.00863723, -0.0029842816, 0.079089165,Lying
0.023942016, 0.033518825, 9.885659,0.0, 0.0, 0.0010652645,-0.0033345567, -0.0029839575, 0.08866596,Lying
0.011971008, 0.033518825, 9.895236,0.0, 0.0015978967, 5.326322E-4,0.006555085, -0.007772209, 0.08148193,Lying
0.021547815, 0.02873042, 9.888053,5.326322E-4, 5.326322E-4, 0.0010652645,0.006658718, -0.005482089, 0.08148289,Lying
0.021547815, 0.031124622, 9.888053,0.0, 0.0, 0.0,0.011415789, -0.012621485, 0.08627033,Lying
0.02633622, 0.023942016, 9.892841,5.326322E-4, 5.326322E-4, 0.0,0.0066971276, -0.015062941, 0.09584808,Lying
0.021547815, 0.021547815, 9.902418,5.326322E-4, -5.326322E-4, 0.0,0.006561145, -0.0031530596, 0.086271286,Lying
0.021547815, 0.033518825, 9.892841,0.0, -5.326322E-4, 5.326322E-4,0.008818349, -0.0031190887, 0.09584808,Lying
0.023942016, 0.033518825, 9.902418,-5.326322E-4, 0.0, 0.0,0.0040299455, -0.0030146837, 0.071905136,Lying
0.019153614, 0.033518825, 9.878476,-5.326322E-4, 5.326322E-4, 0.0,0.001740153, -0.0029102713, 0.08387661,Lying
0.016759412, 0.033518825, 9.890448,0.0, 5.326322E-4, 0.0010652645,-5.504163E-4, -0.007698359, 0.08148193,Lying
0.01436521, 0.02873042, 9.888053,-0.0010652645, 5.326322E-4, 0.0,-0.0028402088, -0.0050953366, 0.083875656,Lying
0.011971008, 0.031124622, 9.890448,0.0010652645, -0.0010652645, 5.326322E-4,-6.5521523E-4, -0.007698206, 0.07429981,Lying
0.01436521, 0.02873042, 9.880871,0.0010652645, 5.326322E-4, 0.0,0.006631803, -0.005512815, 0.09345436,Lying
0.021547815, 0.031124622, 9.900024,0.0, -0.0010652645, 5.326322E-4,0.004028394, -0.010301057, 0.09584808,Lying
0.019153614, 0.02633622, 9.902418,5.326322E-4, 0.0010652645, 0.0010652645,-0.0029461766, 0.0015658624, 0.091059685,Lying
0.011971008, 0.038307227, 9.89763,-5.326322E-4, 5.326322E-4, 0.0,0.0139176445, -0.017483342, 0.08866596,Lying
0.02873042, 0.019153614, 9.895236,0.0, 0.0, 5.326322E-4,0.0043404475, -0.007906375, 0.086271286,Lying
0.019153614, 0.02873042, 9.892841,5.326322E-4, -5.326322E-4, 0.0010652645,0.00902366, -0.0056162663, 0.091059685,Lying
0.023942016, 0.031124622, 9.89763,5.326322E-4, 0.0, -0.0010652645,0.0042360406, -0.0033267885, 0.093455315,Lying
0.019153614, 0.033518825, 9.900024,0.0, 5.326322E-4, 5.326322E-4,0.0066975355, -0.017628353, 0.088666916,Lying
0.021547815, 0.019153614, 9.895236,0.0015978967, -5.326322E-4, 0.0,0.0017845724, -0.013103776, 0.08387947,Lying
0.016759412, 0.023942016, 9.890448,5.326322E-4, 0.0015978967, 0.0,-3.0875206E-4, -0.008381618, 0.06951332,Lying
0.01436521, 0.02873042, 9.876082,-0.0010652645, -5.326322E-4, 5.326322E-4,0.006738268, -0.012879882, 0.08387756,Lying
0.021547815, 0.023942016, 9.890448,5.326322E-4, -5.326322E-4, 0.0,0.006633862, -0.0010132752, 0.09106064,Lying
0.021547815, 0.035913024, 9.89763,-5.326322E-4, -5.326322E-4, 0.0,-6.5315515E-4, -0.008091481, 0.088666916,Lying
0.01436521, 0.02873042, 9.895236,-5.326322E-4, -5.326322E-4, -5.326322E-4,0.013574697, -0.010331314, 0.062329292,Lying
0.02873042, 0.02633622, 9.868899,5.326322E-4, -0.0015978967, 0.0,0.0036846641, 0.001535289, 0.07909012,Lying
0.019153614, 0.038307227, 9.885659,5.326322E-4, 5.326322E-4, 0.0,0.0037890766, -0.008145919, 0.09106159,Lying
0.019153614, 0.02873042, 9.89763,0.0, 0.0, 5.326322E-4,-0.010576527, -0.0129341595, 0.103033066,Lying
0.0047884034, 0.023942016, 9.909601,0.0010652645, -0.0010652645, 0.0,-0.0012085382, -0.0059603713, 0.076696396,Lying
0.01436521, 0.031124622, 9.883265,0.0010652645, 5.326322E-4, 5.326322E-4,0.0012882911, -0.015685854, 0.08866882,Lying
0.016759412, 0.021547815, 9.895236,0.0010652645, -5.326322E-4, 0.0,0.0035724202, -0.008659193, 0.0958519,Lying
0.019153614, 0.02873042, 9.902418,0.0010652645, 5.326322E-4, 5.326322E-4,-0.0011119731, -0.0040794425, 0.07909393,Lying
0.01436521, 0.033518825, 9.885659,-0.0010652645, 5.326322E-4, 5.326322E-4,0.008550799, -0.020551635, 0.0862751,Lying
0.023942016, 0.016759412, 9.892841,0.0, -5.326322E-4, 5.326322E-4,0.0060277786, -0.020454055, 0.08148575,Lying
0.021547815, 0.016759412, 9.888053,-5.326322E-4, -5.326322E-4, 5.326322E-4,0.0011188481, -0.003525056, 0.09106159,Lying
0.016759412, 0.033518825, 9.89763,-5.326322E-4, 0.0, -5.326322E-4,-0.0036691632, -0.0010266118, 0.08387947,Lying
0.011971008, 0.035913024, 9.890448,0.0, 5.326322E-4, 0.0010652645,-0.0011713374, -0.0034204759, 0.081484795,Lying
0.01436521, 0.033518825, 9.888053,5.326322E-4, 5.326322E-4, -5.326322E-4,0.0037218677, -0.013101861, 0.09584999,Lying
0.019153614, 0.023942016, 9.902418,-0.0010652645, -5.326322E-4, 0.0,0.005995377, -0.012828283, 0.08387852,Lying
0.021547815, 0.023942016, 9.890448,5.326322E-4, 5.326322E-4, 0.0,0.0132528115, -0.0033112317, 0.088666916,Lying
0.02873042, 0.033518825, 9.895236,0.0, 5.326322E-4, 0.0,0.008520599, -0.019982537, 0.08387852,Lying
0.023942016, 0.016759412, 9.890448,0.0010652645, 5.326322E-4, 5.326322E-4,0.0038020955, -0.008155094, 0.076696396,Lying
0.019153614, 0.02873042, 9.883265,0.0010652645, 0.0, 0.0,0.008541062, -0.0154514965, 0.09106159,Lying
0.023942016, 0.021547815, 9.89763,0.0010652645, 0.0015978967, 0.0,0.0016410341, -0.008411029, 0.09824467,Lying
0.016759412, 0.02873042, 9.904813,5.326322E-4, 0.0, 5.326322E-4,-7.535638E-4, -0.0013326705, 0.08387947,Lying
0.01436521, 0.035913024, 9.890448,0.0, 0.0, 5.326322E-4,-7.667113E-4, -0.020420307, 0.081484795,Lying
0.01436521, 0.016759412, 9.888053,5.326322E-4, 0.0, 0.0,0.011179699, -0.006104581, 0.08627319,Lying
0.02633622, 0.031124622, 9.892841,-5.326322E-4, 5.326322E-4, 5.326322E-4,0.008857067, -0.010729939, 0.08866787,Lying
0.023942016, 0.02633622, 9.895236,5.326322E-4, 0.0, 5.326322E-4,-7.4095186E-4, -0.0059966072, 0.08866787,Lying
0.01436521, 0.031124622, 9.895236,0.0, 5.326322E-4, 0.0,0.0041275946, -0.0083357785, 0.09345627,Lying
0.019153614, 0.02873042, 9.900024,0.0015978967, -5.326322E-4, 0.0026631611,0.0016058218, -0.018148288, 0.09824467,Lying
0.016759412, 0.019153614, 9.904813,5.326322E-4, 5.326322E-4, -0.0010652645,0.004083774, -0.018168945, 0.081484795,Lying
0.019153614, 0.019153614, 9.888053,0.0010652645, -0.0010652645, 0.0,-0.0057104155, -0.030149117, 0.091062546,Lying
0.009576807, 0.007182605, 9.89763,0.0, 0.0010652645, 0.0,0.0016722968, -0.008481586, 0.09106159,Lying
0.016759412, 0.02873042, 9.89763,0.0010652645, -0.0010652645, 0.0,0.0014538625, -0.015725879, 0.07430267,Lying
0.016759412, 0.021547815, 9.880871,5.326322E-4, 0.0010652645, 0.0010652645,0.008820205, -0.015712122, 0.081484795,Lying
0.023942016, 0.021547815, 9.888053,0.0, 0.0, 0.0,0.008794296, -0.0036722645, 0.08627319,Lying
0.023942016, 0.033518825, 9.892841,0.0010652645, 0.0010652645, 0.0,0.0089639025, -0.013372831, 0.08627319,Lying
0.023942016, 0.023942016, 9.892841,0.0010652645, -0.0010652645, -5.326322E-4,-0.0032393383, -0.013484571, 0.07669735,Lying
0.011971008, 0.023942016, 9.883265,0.0010652645, -0.0010652645, 5.326322E-4,0.0013293494, -0.004070904, 0.0814867,Lying
0.016759412, 0.033518825, 9.888053,0.0010652645, 0.0, -5.326322E-4,0.003723951, -0.0042798854, 0.09106445,Lying
0.019153614, 0.033518825, 9.89763,5.326322E-4, 0.0, 0.0,0.0037067924, -0.0115092695, 0.09585285,Lying
0.019153614, 0.02633622, 9.902418,0.0010652645, 0.0015978967, 0.0010652645,-7.809838E-4, -0.016440438, 0.08388233,Lying
0.01436521, 0.021547815, 9.890448,0.0010652645, 0.0010652645, 0.0,-0.0053614182, -0.004638072, 0.07909393,Lying
0.009576807, 0.033518825, 9.885659,0.0010652645, 0.0, 0.0,-5.730111E-4, -5.8799982E-5, 0.083883286,Lying
0.01436521, 0.038307227, 9.890448,-5.326322E-4, -5.326322E-4, 0.0,-0.007860029, -0.004742801, 0.09346104,Lying
0.007182605, 0.033518825, 9.900024,0.0010652645, 5.326322E-4, 0.0010652645,-5.738316E-4, -0.014528099, 0.09106636,Lying
0.01436521, 0.023942016, 9.89763,-5.326322E-4, -0.0015978967, 0.0010652645,0.006293812, -0.014363144, 0.07909584,Lying
0.021547815, 0.023942016, 9.885659,0.0, -5.326322E-4, 5.326322E-4,0.010977401, 2.231449E-6, 0.08627796,Lying
0.02633622, 0.038307227, 9.892841,-5.326322E-4, 0.0, 0.0,0.008583198, -0.0070759654, 0.08867264,Lying
0.023942016, 0.031124622, 9.895236,0.0, 5.326322E-4, 0.0,0.0015050024, -0.009470167, 0.08867264,Lying
0.016759412, 0.02873042, 9.895236,0.0, -0.0010652645, 5.326322E-4,-0.0058928803, -0.021361092, 0.07430649,Lying
0.009576807, 0.016759412, 9.880871,0.0010652645, 0.0, -5.326322E-4,-0.0011060545, -0.009525357, 0.09106636,Lying
0.01436521, 0.02873042, 9.89763,0.0, 0.0015978967, -5.326322E-4,0.0015991414, -0.009485504, 0.08867264,Lying
0.016759412, 0.02873042, 9.895236,-5.326322E-4, 0.0010652645, -5.326322E-4,-5.882811E-4, -0.016503489, 0.08867073,Lying
0.01436521, 0.021547815, 9.895236,5.326322E-4, 0.0, -5.326322E-4,0.0018001655, -0.021289842, 0.09345913,Lying
0.016759412, 0.016759412, 9.900024,0.0, 5.326322E-4, 5.326322E-4,0.0018938687, -0.018755674, 0.08866978,Lying
0.016759412, 0.019153614, 9.895236,5.326322E-4, -0.0015978967, 0.0,0.0111274505, -0.011554152, 0.086276054,Lying
0.02633622, 0.02633622, 9.892841,5.326322E-4, 5.326322E-4, 0.0010652645,-0.0031483928, -0.009158222, 0.074305534,Lying
0.011971008, 0.02873042, 9.880871,0.0, 0.0010652645, 0.0010652645,0.0018480225, 4.189089E-4, 0.071909904,Lying
0.016759412, 0.038307227, 9.878476,0.0010652645, -5.326322E-4, 5.326322E-4,-6.509926E-4, -0.006972354, 0.09824848,Lying
0.01436521, 0.031124622, 9.904813,0.0010652645, 0.0015978967, 5.326322E-4,0.011632835, -0.004786812, 0.09346008,Lying
0.02633622, 0.033518825, 9.900024,0.0, 5.326322E-4, 5.326322E-4,-2.5355257E-4, -0.021468783, 0.10542965,Lying
0.01436521, 0.016759412, 9.911995,0.0015978967, 5.326322E-4, 0.0,0.009385078, -0.01926107, 0.07909584,Lying
0.023942016, 0.019153614, 9.885659,-5.326322E-4, -5.326322E-4, -5.326322E-4,0.006856489, -0.0047243424, 0.086276054,Lying
0.021547815, 0.033518825, 9.892841,0.0010652645, 0.0, -5.326322E-4,0.0020315098, -0.016790258, 0.09824848,Lying
0.016759412, 0.021547815, 9.904813,0.0, 0.0, 0.0,-0.0027780365, -0.011883497, 0.081487656,Lying
0.011971008, 0.02633622, 9.888053,0.0, -0.0010652645, 5.326322E-4,-6.0499646E-4, -0.028489439, 0.09106445,Lying
0.01436521, 0.009576807, 9.89763,0.0, 5.326322E-4, 5.326322E-4,0.0018805703, -0.0139842555, 0.08866978,Lying
0.016759412, 0.023942016, 9.895236,0.0015978967, 0.0010652645, -5.326322E-4,0.0020750351, -0.016552506, 0.09106445,Lying
0.016759412, 0.021547815, 9.89763,-5.326322E-4, 0.0010652645, -5.326322E-4,0.0046604117, -0.0019980632, 0.0766983,Lying
0.019153614, 0.035913024, 9.883265,0.0010652645, -0.0015978967, 5.326322E-4,0.0019372199, -0.006916348, 0.09585285,Lying
0.016759412, 0.031124622, 9.902418,0.0010652645, -0.0015978967, -5.326322E-4,-7.769102E-4, -0.014234811, 0.07909489,Lying
0.01436521, 0.023942016, 9.885659,5.326322E-4, -0.0010652645, 0.0,-0.005774131, -0.0023682155, 0.08148956,Lying
0.009576807, 0.035913024, 9.888053,5.326322E-4, 0.0, -5.326322E-4,0.006197286, -0.007261187, 0.08148956,Lying
0.021547815, 0.031124622, 9.888053,0.0015978967, 0.0, 5.326322E-4,0.001402175, -0.0146902725, 0.088674545,Lying
0.016759412, 0.023942016, 9.895236,0.0015978967, 0.0010652645, 5.326322E-4,0.0016105799, 0.006544482, 0.0838871,Lying
0.016759412, 0.045489833, 9.890448,0.0015978967, -0.0010652645, 5.326322E-4,0.008583949, -0.008133795, 0.08867645,Lying
0.023942016, 0.031124622, 9.895236,-0.0010652645, -5.326322E-4, 5.326322E-4,0.0012963573, -0.007924501, 0.103040695,Lying
0.016759412, 0.031124622, 9.909601,5.326322E-4, 0.0, 5.326322E-4,0.010872751, -0.010422939, 0.0934639,Lying
0.02633622, 0.02873042, 9.900024,0.0, 0.0, 0.0010652645,0.0012951111, -0.010422612, 0.09106922,Lying
0.016759412, 0.02873042, 9.89763,0.0010652645, -5.326322E-4, -5.326322E-4,-0.0012174286, -0.01296065, 0.08628178,Lying
0.01436521, 0.02633622, 9.892841,0.0010652645, 0.002130529, -5.326322E-4,0.003989026, -0.005987026, 0.09107113,Lying
0.019153614, 0.033518825, 9.89763,0.002130529, -5.326322E-4, -0.0010652645,0.0038709864, -0.008754708, 0.08867836,Lying
0.019153614, 0.031124622, 9.895236,0.0010652645, -5.326322E-4, 0.0010652645,0.0013713641, -0.0065693185, 0.08389187,Lying
0.016759412, 0.033518825, 9.890448,5.326322E-4, -0.0010652645, 5.326322E-4,0.001153009, -0.01141615, 0.093468666,Lying
0.016759412, 0.02873042, 9.900024,0.0, 5.326322E-4, 0.0,0.0012574177, -0.009021953, 0.071920395,Lying
0.016759412, 0.031124622, 9.878476,0.0015978967, -0.0015978967, 0.0,0.0057153236, -0.01882648, 0.083893776,Lying
0.021547815, 0.021547815, 9.890448,-5.326322E-4, -0.0015978967, 0.0010652645,0.007771207, -0.013849989, 0.09586334,Lying
0.023942016, 0.02633622, 9.902418,5.326322E-4, -5.326322E-4, 5.326322E-4,4.6691857E-4, -0.011481656, 0.0910759,Lying
0.016759412, 0.02873042, 9.89763,-0.0010652645, 5.326322E-4, -5.326322E-4,0.005336916, -0.01597093, 0.098257065,Lying
0.021547815, 0.023942016, 9.904813,5.326322E-4, 0.0010652645, 5.326322E-4,-0.0016572392, -0.015943311, 0.08868027,Lying
0.01436521, 0.023942016, 9.895236,5.326322E-4, 0.0015978967, -0.0010652645,0.0010348428, -0.013541229, 0.07670879,Lying
0.016759412, 0.02633622, 9.883265,5.326322E-4, 0.0, -5.326322E-4,0.0034080874, -0.020682987, 0.09346771,Lying
0.019153614, 0.019153614, 9.900024,0.0010652645, 5.326322E-4, 0.0010652645,0.0034865886, -0.013564259, 0.08868027,Lying
0.019153614, 0.02633622, 9.895236,0.0, -5.326322E-4, 5.326322E-4,0.00574797, -0.013440538, 0.095861435,Lying
0.021547815, 0.02633622, 9.902418,-5.326322E-4, 0.0, 5.326322E-4,-0.001452473, -0.013210539, 0.09825516,Lying
0.01436521, 0.02633622, 9.904813,0.002130529, 5.326322E-4, -0.0010652645,0.0034206212, -0.011116328, 0.09346771,Lying
0.019153614, 0.02873042, 9.900024,-5.326322E-4, 0.0015978967, 0.0,-0.003455785, -0.0013620406, 0.07670689,Lying
0.011971008, 0.038307227, 9.883265,0.0010652645, 0.0010652645, 5.326322E-4,0.0015316606, -0.020624422, 0.09107208,Lying
0.016759412, 0.019153614, 9.89763,0.0010652645, -5.326322E-4, 5.326322E-4,-9.701112E-4, -0.008802202, 0.08628464,Lying
0.01436521, 0.031124622, 9.892841,0.0, -5.326322E-4, 0.0,-0.0010742014, -0.027782496, 0.09825516,Lying
0.01436521, 0.011971008, 9.904813,0.0, 0.0, 5.326322E-4,0.006090492, -0.018019853, 0.08867741,Lying
0.021547815, 0.021547815, 9.895236,0.0010652645, -5.326322E-4, 0.0,-0.001201286, 0.005786497, 0.08867836,Lying
0.01436521, 0.045489833, 9.895236,0.0, -5.326322E-4, -5.326322E-4,0.005865399, -0.006125685, 0.07910156,Lying
0.021547815, 0.033518825, 9.885659,0.0, 0.0, 0.0,-0.0013236357, -0.018023284, 0.08388996,Lying
0.01436521, 0.021547815, 9.890448,0.0010652645, 5.326322E-4, 0.0,0.0011665672, -0.0085690655, 0.09107208,Lying
0.016759412, 0.031124622, 9.89763,-5.326322E-4, -0.0010652645, 5.326322E-4,9.528585E-4, -0.013192818, 0.086283684,Lying
0.016759412, 0.02633622, 9.892841,0.0010652645, -5.326322E-4, 0.0,-0.0015457468, -0.0038248152, 0.08867931,Lying
0.01436521, 0.035913024, 9.895236,5.326322E-4, 0.0010652645, 5.326322E-4,-0.0013354411, -0.025349982, 0.081495285,Lying
0.01436521, 0.01436521, 9.888053,0.0, -5.326322E-4, -5.326322E-4,-0.0038234927, -0.015660103, 0.09346676,Lying
0.011971008, 0.023942016, 9.900024,0.0010652645, 5.326322E-4, 0.0,0.005852014, -0.008579526, 0.08388996,Lying
0.021547815, 0.031124622, 9.890448,-5.326322E-4, 0.0010652645, 0.0010652645,0.0036606677, -0.003653288, 0.08388901,Lying
0.019153614, 0.035913024, 9.890448,0.0, 5.326322E-4, 0.0010652645,-0.0058125723, -0.0036529563, 0.093465805,Lying
0.009576807, 0.035913024, 9.900024,0.0, 0.0, 5.326322E-4,0.015708469, -0.017942691, 0.1030426,Lying
0.031124622, 0.021547815, 9.909601,5.326322E-4, 0.0, 5.326322E-4,0.0060931565, -0.015545808, 0.08867741,Lying
0.021547815, 0.023942016, 9.895236,0.0, 0.0, 5.326322E-4,0.001279341, -0.013061497, 0.09585953,Lying
0.016759412, 0.02633622, 9.902418,0.0010652645, 5.326322E-4, 0.0,0.0013620984, -0.010785529, 0.09585953,Lying
0.016759412, 0.02873042, 9.902418,0.0, 5.326322E-4, 5.326322E-4,-0.0033310354, -0.013093427, 0.08388901,Lying
0.011971008, 0.02633622, 9.890448,5.326322E-4, 0.0, 0.0,0.0086188065, -0.01311361, 0.09107113,Lying
0.023942016, 0.02633622, 9.89763,5.326322E-4, 5.326322E-4, 5.326322E-4,-0.0056476565, -0.01074391, 0.08867741,Lying
0.009576807, 0.02873042, 9.895236,5.326322E-4, 0.0015978967, 5.326322E-4,0.0018380759, -0.017930994, 0.09346485,Lying
0.016759412, 0.021547815, 9.900024,0.0, 0.0, 5.326322E-4,0.0018266151, -0.017811386, 0.0934639,Lying
0.016759412, 0.021547815, 9.900024,0.0, 5.326322E-4, 0.0,-4.7080126E-4, -0.015290923, 0.09585762,Lying
0.01436521, 0.023942016, 9.902418,0.0010652645, 0.0010652645, 0.0,0.0021205386, -0.017755015, 0.103040695,Lying
0.016759412, 0.021547815, 9.909601,-5.326322E-4, -0.0010652645, 0.0010652645,0.0066752434, -0.015111227, 0.07670307,Lying
0.021547815, 0.023942016, 9.883265,0.0010652645, 0.0, 0.0,0.013803753, -0.017556304, 0.0886755,Lying
0.02873042, 0.021547815, 9.895236,0.0, 5.326322E-4, 0.0,-4.890552E-4, -0.005476199, 0.088674545,Lying
0.01436521, 0.033518825, 9.895236,0.0, 0.0010652645, -0.0010652645,-2.9840413E-4, -0.003011372, 0.093462944,Lying
0.01436521, 0.035913024, 9.900024,5.326322E-4, 0.0, 0.0,0.011635058, -0.015001107, 0.08627987,Lying
0.02633622, 0.023942016, 9.892841,5.326322E-4, 0.0, 5.326322E-4,0.0044180583, -0.010237237, 0.09825134,Lying
0.019153614, 0.02873042, 9.904813,0.0, -0.0010652645, 5.326322E-4,0.001787805, -0.012548793, 0.088674545,Lying
0.016759412, 0.02633622, 9.895236,0.0, 5.326322E-4, 5.326322E-4,0.004256269, -0.014847785, 0.10303879,Lying
0.019153614, 0.023942016, 9.909601,0.0, 0.0015978967, 5.326322E-4,0.006920865, -0.017122416, 0.08388424,Lying
0.021547815, 0.021547815, 9.890448,-5.326322E-4, 5.326322E-4, 0.0,0.014162229, -0.00258689, 0.09106636,Lying
0.02873042, 0.035913024, 9.89763,-5.326322E-4, 0.0, 5.326322E-4,0.009317116, -0.009590564, 0.095853806,Lying
0.023942016, 0.02873042, 9.902418,0.0015978967, 0.002130529, 0.0,1.1280365E-4, -0.014603216, 0.09346008,Lying
0.01436521, 0.023942016, 9.900024,-5.326322E-4, -5.326322E-4, 5.326322E-4,-2.6762486E-5, -0.016784774, 0.08388233,Lying
0.01436521, 0.021547815, 9.890448,5.326322E-4, 0.0, 5.326322E-4,-4.8203394E-5, -0.012009714, 0.10303593,Lying
0.01436521, 0.02633622, 9.909601,5.326322E-4, 0.0, 5.326322E-4,0.016659595, -0.00962639, 0.09346008,Lying
0.031124622, 0.02873042, 9.900024,0.0, 0.0, -5.326322E-4,-1.27621E-4, 3.0584633E-6, 0.09106541,Lying
0.01436521, 0.038307227, 9.89763,5.326322E-4, 0.0, 5.326322E-4,0.009448776, -1.01193786E-4, 0.09824848,Lying
0.023942016, 0.038307227, 9.904813,0.0010652645, -0.0010652645, -5.326322E-4,0.004422902, -0.0122364275, 0.08388424,Lying
0.019153614, 0.02633622, 9.890448,0.0, 0.0015978967, 5.326322E-4,-7.489603E-5, -0.019356001, 0.09346008,Lying
0.01436521, 0.019153614, 9.900024,0.0, -5.326322E-4, 5.326322E-4,0.006965152, -0.02163581, 0.083883286,Lying
0.021547815, 0.016759412, 9.890448,0.0015978967, 0.0010652645, 5.326322E-4,0.0047469884, -0.0051087476, 0.08148956,Lying
0.019153614, 0.033518825, 9.888053,0.0, 5.326322E-4, 0.0010652645,0.0024272138, -0.014596377, 0.088671684,Lying
0.016759412, 0.023942016, 9.895236,0.0010652645, 0.0015978967, -5.326322E-4,0.0027112095, -0.012315128, 0.08627796,Lying
0.016759412, 0.02633622, 9.892841,0.0, 5.326322E-4, -0.0010652645,0.0075769527, -0.0098534245, 0.07191181,Lying
0.021547815, 0.02873042, 9.878476,0.0, 0.0, 5.326322E-4,-0.002017811, -0.016957777, 0.088671684,Lying
0.011971008, 0.021547815, 9.895236,0.0010652645, 0.0010652645, 5.326322E-4,0.010120661, -0.014659163, 0.09585285,Lying
0.023942016, 0.023942016, 9.902418,-5.326322E-4, 0.0, 0.0,5.141385E-4, -0.007276587, 0.09585285,Lying
0.01436521, 0.031124622, 9.902418,0.0, 0.0, 0.0,-0.0018875133, -0.009631479, 0.074305534,Lying
0.011971008, 0.02873042, 9.880871,-5.326322E-4, -5.326322E-4, 5.326322E-4,0.0075585283, -0.014225751, 0.0766983,Lying
0.021547815, 0.023942016, 9.883265,0.0, 5.326322E-4, 0.0,0.010021116, -0.0021905042, 0.0958519,Lying
0.023942016, 0.035913024, 9.902418,-0.002130529, -0.0010652645, 5.326322E-4,0.007385646, -0.013685167, 0.081484795,Lying
0.021547815, 0.023942016, 9.888053,-5.326322E-4, 5.326322E-4, 5.326322E-4,0.01700873, -0.013507001, 0.08866787,Lying
0.031124622, 0.023942016, 9.895236,0.0010652645, 0.0010652645, 0.0,0.0028080428, -0.013641823, 0.08387947,Lying
0.016759412, 0.023942016, 9.890448,5.326322E-4, -0.0010652645, 0.0,0.004959652, -0.0065059587, 0.09106159,Lying
0.019153614, 0.031124622, 9.89763,0.0015978967, 5.326322E-4, 5.326322E-4,0.0074133016, -0.011533216, 0.08627415,Lying
0.021547815, 0.02633622, 9.892841,5.326322E-4, -5.326322E-4, 0.0010652645,0.002488169, -0.0020092092, 0.08866978,Lying
0.016759412, 0.035913024, 9.895236,5.326322E-4, 0.0, 0.0,9.396486E-5, -0.0069020167, 0.08866978,Lying
0.01436521, 0.031124622, 9.895236,0.0, -5.326322E-4, 0.0,0.004777642, -0.0045078136, 0.08866978,Lying
0.019153614, 0.033518825, 9.895236,5.326322E-4, -5.326322E-4, -5.326322E-4,-1.3220031E-4, -0.02130025, 0.08867073,Lying
0.01436521, 0.016759412, 9.895236,0.0010652645, -5.326322E-4, 0.0,0.0069290623, -0.0047060438, 0.081487656,Lying
0.021547815, 0.033518825, 9.888053,5.326322E-4, 0.0, -5.326322E-4,-2.702698E-4, -0.021484787, 0.08867073,Lying
0.01436521, 0.016759412, 9.895236,-5.326322E-4, -0.0015978967, -5.326322E-4,0.013735506, -0.021248152, 0.09106445,Lying
0.02873042, 0.016759412, 9.89763,0.0015978967, 5.326322E-4, 5.326322E-4,0.0018326696, -0.00708827, 0.09585285,Lying
0.016759412, 0.031124622, 9.902418,0.0010652645, 0.0010652645, 0.0,-0.0027667563, -0.007205412, 0.07909489,Lying
0.011971008, 0.031124622, 9.885659,0.0015978967, 5.326322E-4, 0.0,0.009273264, -0.016987411, 0.08627796,Lying
0.023942016, 0.021547815, 9.892841,0.0010652645, 5.326322E-4, 0.0010652645,-0.005001002, -0.009927386, 0.08867264,Lying
0.009576807, 0.02873042, 9.895236,0.0010652645, -5.326322E-4, 0.0,0.002066427, -0.010063393, 0.091067314,Lying
0.016759412, 0.02873042, 9.89763,0.0, 5.326322E-4, 5.326322E-4,0.0021573165, -0.009984104, 0.09825039,Lying
0.016759412, 0.02873042, 9.904813,5.326322E-4, 0.0, 5.326322E-4,0.0045511033, -0.00290576, 0.08388519,Lying
0.019153614, 0.035913024, 9.890448,0.0, 0.0, 5.326322E-4,0.006944891, -0.002905611, 0.08867359,Lying
0.021547815, 0.035913024, 9.895236,0.0010652645, 0.0010652645, 0.0010652645,0.002345671, -0.01264083, 0.07670212,Lying
0.016759412, 0.02633622, 9.883265,0.0010652645, 0.0010652645, -5.326322E-4,0.0073124142, -0.022338705, 0.105433464,Lying
0.021547815, 0.016759412, 9.911995,0.0010652645, 0.0010652645, 5.326322E-4,0.005091236, -0.008095413, 0.08149147,Lying
0.019153614, 0.031124622, 9.888053,5.326322E-4, 5.326322E-4, -5.326322E-4,0.0075495886, -0.010509821, 0.08388615,Lying
0.021547815, 0.02873042, 9.890448,0.0, -5.326322E-4, 5.326322E-4,0.009796776, -0.012827687, 0.08388615,Lying
0.023942016, 0.02633622, 9.890448,-5.326322E-4, 5.326322E-4, 0.0,0.009858061, -7.0092827E-4, 0.09346199,Lying
0.023942016, 0.038307227, 9.900024,-5.326322E-4, -0.0010652645, 5.326322E-4,0.0024662241, -0.00299057, 0.091067314,Lying
0.016759412, 0.035913024, 9.89763,0.0010652645, 5.326322E-4, 5.326322E-4,0.002542439, -0.015116993, 0.09106827,Lying
0.016759412, 0.023942016, 9.89763,5.326322E-4, -0.0010652645, 0.0010652645,0.00231128, -0.007989392, 0.08149147,Lying
0.016759412, 0.031124622, 9.888053,-5.326322E-4, 5.326322E-4, 5.326322E-4,0.014343291, -0.0102193225, 0.079096794,Lying
0.02873042, 0.02873042, 9.885659,0.0015978967, 0.0, 0.0,0.0023210458, -0.019993387, 0.08388615,Lying
0.016759412, 0.019153614, 9.890448,0.0, -0.0015978967, 5.326322E-4,0.009138202, -0.017483095, 0.09585667,Lying
0.023942016, 0.021547815, 9.902418,0.0, 0.0015978967, -5.326322E-4,-1.6049016E-4, -0.007812589, 0.08627987,Lying
0.01436521, 0.031124622, 9.892841,5.326322E-4, 0.0, 0.0,0.006975268, -0.01498168, 0.09825134,Lying
0.021547815, 0.023942016, 9.904813,5.326322E-4, 0.0, 0.0,0.006924561, -0.014962222, 0.07670307,Lying
0.021547815, 0.023942016, 9.883265,0.0, 0.0010652645, -5.326322E-4,-7.271208E-5, -0.007710237, 0.08627796,Lying
0.01436521, 0.031124622, 9.892841,0.0, -5.326322E-4, 5.326322E-4,-0.0025903936, -0.010005901, 0.08149052,Lying
0.011971008, 0.02873042, 9.888053,0.0010652645, -5.326322E-4, -5.326322E-4,0.00447362, -0.012543909, 0.08627987,Lying
0.019153614, 0.02633622, 9.892841,5.326322E-4, -0.0010652645, 0.0,-0.0053138267, -0.012575038, 0.105433464,Lying
0.009576807, 0.02633622, 9.911995,5.326322E-4, 0.0, 5.326322E-4,0.016201999, -0.010203881, 0.08149147,Lying
0.031124622, 0.02873042, 9.888053,0.0, -5.326322E-4, 0.0,0.01126397, -0.010121809, 0.08627987,Lying
0.02633622, 0.02873042, 9.892841,0.0, -0.0010652645, 0.0,0.0014450531, -0.014823154, 0.10303974,Lying
0.016759412, 0.023942016, 9.909601,-5.326322E-4, -5.326322E-4, 0.0010652645,0.013260981, -0.0074566454, 0.08388519,Lying
0.02873042, 0.031124622, 9.890448,0.0015978967, 0.0, 0.0,0.0036316235, -0.0148438625, 0.08388615,Lying
0.019153614, 0.023942016, 9.890448,5.326322E-4, 0.0, 5.326322E-4,0.001197204, -0.014834404, 0.0886755,Lying
0.016759412, 0.023942016, 9.895236,0.0015978967, 0.0015978967, 5.326322E-4,0.0014835214, -0.012663461, 0.09106922,Lying
0.016759412, 0.02633622, 9.89763,-5.326322E-4, 5.326322E-4, 0.0010652645,0.003956047, -0.012475662, 0.07670307,Lying
0.019153614, 0.02633622, 9.883265,0.0010652645, 0.0, 0.0010652645,-8.513285E-4, -0.012592409, 0.08628082,Lying
0.01436521, 0.02633622, 9.892841,-5.326322E-4, 0.0, 0.0,0.0039156014, -0.017171478, 0.093462944,Lying
0.019153614, 0.021547815, 9.900024,0.0010652645, 5.326322E-4, 0.0,0.0016099093, -0.0077253096, 0.10782814,Lying
0.016759412, 0.031124622, 9.91439,5.326322E-4, 5.326322E-4, 0.0010652645,0.008896094, 0.0017474145, 0.09825134,Lying
0.023942016, 0.04070143, 9.904813,0.0015978967, 0.0, 0.0,0.0041076913, -0.005748421, 0.09106922,Lying
0.019153614, 0.033518825, 9.89763,0.0, 5.326322E-4, 0.0,0.006577409, -0.010483975, 0.07191563,Lying
0.021547815, 0.02873042, 9.878476,-0.0010652645, -5.326322E-4, 5.326322E-4,0.013608133, -0.007824358, 0.09106922,Lying
0.02873042, 0.031124622, 9.89763,0.0, 0.0010652645, 0.0,-5.808184E-4, -0.014940929, 0.093462944,Lying
0.01436521, 0.023942016, 9.900024,0.0010652645, 0.0010652645, 0.0,0.011551848, -0.01506925, 0.088674545,Lying
0.02633622, 0.023942016, 9.895236,5.326322E-4, 0.0015978967, 0.002130529,-0.004929659, -0.019838873, 0.08149147,Lying
0.009576807, 0.019153614, 9.888053,0.0, -5.326322E-4, 0.0010652645,0.004510264, -0.0053782165, 0.09585667,Lying
0.019153614, 0.033518825, 9.902418,0.0, 0.0010652645, 0.0015978967,0.004717838, -5.893521E-4, 0.08388519,Lying
0.019153614, 0.038307227, 9.890448,5.326322E-4, 0.0, 5.326322E-4,0.0023036245, -0.015002135, 0.09585571,Lying
0.016759412, 0.023942016, 9.902418,0.0010652645, 0.0010652645, -5.326322E-4,0.004879768, -0.019910328, 0.100645065,Lying
0.019153614, 0.019153614, 9.907207,-5.326322E-4, 5.326322E-4, 0.0,0.007335865, -0.022066688, 0.08388424,Lying
0.021547815, 0.016759412, 9.890448,0.0, -5.326322E-4, 5.326322E-4,0.0071817497, -0.017132653, 0.09106636,Lying
0.021547815, 0.021547815, 9.89763,0.0015978967, 0.0010652645, -5.326322E-4,-0.0022132378, -0.010146363, 0.09585476,Lying
0.011971008, 0.02873042, 9.902418,-5.326322E-4, -5.326322E-4, 5.326322E-4,0.007233697, -4.030764E-4, 0.08627796,Lying
0.021547815, 0.038307227, 9.892841,5.326322E-4, 0.0010652645, 0.0015978967,0.0026528733, -0.00290123, 0.08867264,Lying
0.016759412, 0.035913024, 9.895236,5.326322E-4, 0.0, -5.326322E-4,0.0026276615, -0.022069497, 0.09346104,Lying
0.016759412, 0.016759412, 9.900024,0.0, 5.326322E-4, -5.326322E-4,3.2485835E-4, -0.0100398455, 0.08388424,Lying
0.01436521, 0.02873042, 9.890448,-5.326322E-4, 5.326322E-4, 0.0,-0.0019685905, -0.0075147264, 0.08867264,Lying
0.011971008, 0.031124622, 9.895236,0.0, 0.0, 0.0,0.0028198138, -0.0051205233, 0.09346104,Lying
0.016759412, 0.033518825, 9.900024,0.0010652645, 0.0, 5.326322E-4,0.0075947037, -0.010079591, 0.08627796,Lying
0.021547815, 0.02873042, 9.892841,0.0, -0.0010652645, 0.0010652645,0.007367528, -0.012430068, 0.08867264,Lying
0.021547815, 0.02633622, 9.895236,0.0, -5.326322E-4, 0.0,0.009610892, -0.007560376, 0.09106636,Lying
0.023942016, 0.031124622, 9.89763,0.0, -0.0010652645, 0.0,0.014118535, -0.014638655, 0.09346104,Lying
0.02873042, 0.023942016, 9.900024,5.326322E-4, 0.0, 0.0,-0.0026822947, -0.014637262, 0.08867264,Lying
0.011971008, 0.023942016, 9.895236,0.0010652645, 5.326322E-4, -5.326322E-4,0.0021729572, -0.014724731, 0.08148956,Lying
0.016759412, 0.023942016, 9.888053,0.0010652645, -5.326322E-4, 0.0,-0.0027356632, -0.0124402605, 0.09346199,Lying
0.011971008, 0.02633622, 9.900024,5.326322E-4, 0.0, 0.0,-3.5256054E-4, -0.010050954, 0.08149052,Lying
0.01436521, 0.02873042, 9.888053,0.0010652645, 0.0010652645, 0.0,0.0094012, -0.012544766, 0.093462944,Lying
0.023942016, 0.02633622, 9.900024,-5.326322E-4, 0.0010652645, 5.326322E-4,0.0071782283, -0.009952875, 0.098249435,Lying
0.021547815, 0.02873042, 9.904813,5.326322E-4, -5.326322E-4, -5.326322E-4,0.011818233, -0.012369331, 0.08867359,Lying
0.02633622, 0.02633622, 9.895236,5.326322E-4, 5.326322E-4, -5.326322E-4,0.0023138542, -0.0076194406, 0.08627796,Lying
0.016759412, 0.031124622, 9.892841,0.0, 0.0010652645, 0.0,0.0072808983, -0.0027868003, 0.08627796,Lying
0.021547815, 0.035913024, 9.892841,5.326322E-4, 5.326322E-4, 0.0,1.8089265E-4, -0.012419265, 0.08388424,Lying
0.01436521, 0.02633622, 9.890448,0.0010652645, 0.0, 5.326322E-4,0.0025570989, -0.007796198, 0.08388519,Lying
0.016759412, 0.031124622, 9.890448,0.0, 5.326322E-4, 0.0,0.0098144505, -0.010137906, 0.09106636,Lying
0.023942016, 0.02873042, 9.89763,0.0, 0.0, -5.326322E-4,0.007420663, -5.6125596E-4, 0.09346104,Lying
0.021547815, 0.038307227, 9.900024,0.0010652645, 5.326322E-4, 0.0,3.2167882E-4, -0.012699168, 0.086278915,Lying
0.01436521, 0.02633622, 9.892841,0.0, 5.326322E-4, 0.0010652645,0.012353883, -0.015024744, 0.086278915,Lying
0.02633622, 0.023942016, 9.892841,0.0, 0.0010652645, 5.326322E-4,5.626846E-4, -0.010175725, 0.08867264,Lying
0.01436521, 0.02873042, 9.895236,-5.326322E-4, -5.326322E-4, 5.326322E-4,-0.0019363388, -0.005282767, 0.08388424,Lying
0.011971008, 0.033518825, 9.890448,-5.326322E-4, 0.0, 0.0010652645,0.00761493, -0.0146927945, 0.09106636,Lying
0.021547815, 0.023942016, 9.89763,0.0, 5.326322E-4, 0.0,0.0029097768, -0.009847945, 0.09106445,Lying
0.016759412, 0.02873042, 9.89763,0.0010652645, -5.326322E-4, 0.0,3.9154943E-4, -0.019542102, 0.08627796,Lying
0.01436521, 0.019153614, 9.892841,-0.0015978967, -5.326322E-4, 5.326322E-4,0.014625986, -0.0048167, 0.081487656,Lying
0.02873042, 0.033518825, 9.888053,0.0010652645, 5.326322E-4, 5.326322E-4,0.0051169526, -0.012136456, 0.095853806,Lying
0.019153614, 0.02633622, 9.902418,0.0015978967, 0.0010652645, -0.0010652645,0.0028996319, -0.009982804, 0.10303688,Lying
0.016759412, 0.02873042, 9.909601,-5.326322E-4, 0.0, 5.326322E-4,0.0076424396, -0.021737674, 0.086276054,Lying
0.021547815, 0.016759412, 9.892841,-5.326322E-4, 5.326322E-4, 5.326322E-4,0.0053184936, -0.0024142638, 0.0910635,Lying
0.019153614, 0.035913024, 9.89763,5.326322E-4, 5.326322E-4, 0.0,0.010162805, -0.012015693, 0.09585285,Lying
0.023942016, 0.02633622, 9.902418,5.326322E-4, -5.326322E-4, 0.0,0.0028422698, -0.004879862, 0.09345913,Lying
0.016759412, 0.033518825, 9.900024,-5.326322E-4, 5.326322E-4, 0.0,-0.0018656347, -0.016669923, 0.07909298,Lying
0.011971008, 0.021547815, 9.885659,0.0010652645, 0.0, 5.326322E-4,5.281605E-4, -1.1917949E-4, 0.08388233,Lying
0.01436521, 0.038307227, 9.890448,5.326322E-4, 5.326322E-4, 0.0,0.0077853836, -0.021682726, 0.07909393,Lying
0.021547815, 0.016759412, 9.885659,0.0010652645, -5.326322E-4, 0.0,0.005253474, -0.014607705, 0.07909393,Lying
0.019153614, 0.023942016, 9.885659,5.326322E-4, -5.326322E-4, 0.0010652645,0.0027281167, -0.019397233, 0.07670021,Lying
0.016759412, 0.019153614, 9.883265,-5.326322E-4, -5.326322E-4, 0.0010652645,0.012149447, -0.016767664, 0.09106445,Lying
0.02633622, 0.021547815, 9.89763,0.0, 5.326322E-4, 5.326322E-4,0.0050274804, -0.009479621, 0.09585285,Lying
0.019153614, 0.02873042, 9.902418,5.326322E-4, -5.326322E-4, 0.0,0.016806392, -0.016616812, 0.081487656,Lying
0.031124622, 0.021547815, 9.888053,-5.326322E-4, -0.0010652645, -5.326322E-4,0.004567044, -0.013999224, 0.0862751,Lying
0.019153614, 0.023942016, 9.892841,5.326322E-4, 0.0, 0.0,-0.005047694, -0.018736266, 0.0814867,Lying
0.009576807, 0.019153614, 9.888053,5.326322E-4, 5.326322E-4, 0.0,0.0022182744, 3.834106E-4, 0.093458176,Lying
0.016759412, 0.038307227, 9.900024,5.326322E-4, -5.326322E-4, 0.0,-0.0026813764, -0.009251477, 0.08867073,Lying
0.011971008, 0.02873042, 9.895236,5.326322E-4, 0.0, 5.326322E-4,0.0068701124, -0.016434213, 0.08867073,Lying
0.021547815, 0.021547815, 9.895236,5.326322E-4, 5.326322E-4, 5.326322E-4,0.00216161, -0.016420266, 0.09106445,Lying
0.016759412, 0.021547815, 9.89763,-5.326322E-4, 0.0, 5.326322E-4,-2.46956E-4, -0.0066530444, 0.0958519,Lying
0.01436521, 0.031124622, 9.902418,5.326322E-4, 5.326322E-4, 0.0,0.002234446, -0.013834674, 0.093458176,Lying
0.016759412, 0.023942016, 9.900024,0.0010652645, 0.0010652645, 0.0,0.009586371, -0.018697213, 0.0862751,Lying
0.023942016, 0.019153614, 9.892841,0.0010652645, 0.0, 0.0010652645,-1.5055761E-5, -0.009224853, 0.0910635,Lying
0.01436521, 0.02873042, 9.89763,0.0015978967, 0.0010652645, 5.326322E-4,0.004954133, -0.016610773, 0.086276054,Lying
0.019153614, 0.021547815, 9.892841,5.326322E-4, 5.326322E-4, 0.0010652645,0.0050274925, -0.011823833, 0.0910635,Lying
0.019153614, 0.02633622, 9.89763,0.0010652645, -5.326322E-4, -0.0010652645,0.004899027, -0.00478125, 0.10064125,Lying
0.019153614, 0.033518825, 9.907207,0.0010652645, 0.0, 0.0,0.007256478, -0.014473766, 0.08867073,Lying
0.021547815, 0.023942016, 9.895236,5.326322E-4, 0.0010652645, 5.326322E-4,0.0050317356, -0.016865836, 0.09106445,Lying
0.019153614, 0.021547815, 9.89763,0.0, 0.0, 0.0,0.0049996357, -0.004821431, 0.09106445,Lying
0.019153614, 0.033518825, 9.89763,0.0015978967, 0.0015978967, 0.0010652645,0.010064175, -2.9803813E-4, 0.09585285,Lying
0.023942016, 0.038307227, 9.902418,5.326322E-4, 0.0, -5.326322E-4,0.0028442685, -0.009916464, 0.09106541,Lying
0.016759412, 0.02873042, 9.89763,-5.326322E-4, 5.326322E-4, 5.326322E-4,0.0029482637, -0.0026293024, 0.09345913,Lying
0.016759412, 0.035913024, 9.900024,0.0010652645, 5.326322E-4, 5.326322E-4,0.0054466184, -0.010020902, 0.09824848,Lying
0.019153614, 0.02873042, 9.904813,0.0010652645, 0.0, -5.326322E-4,0.007813479, -0.01735943, 0.08627796,Lying
0.021547815, 0.021547815, 9.892841,0.0010652645, -0.0010652645, 0.0,0.0027830517, -0.007918432, 0.086278915,Lying
0.016759412, 0.031124622, 9.892841,0.0015978967, 5.326322E-4, 0.0,0.007630282, -0.027259815, 0.07909775,Lying
0.021547815, 0.011971008, 9.885659,0.0010652645, 0.0, 0.0,-0.004360499, -0.005829241, 0.09106827,Lying
0.009576807, 0.033518825, 9.89763,-5.326322E-4, 0.0015978967, 0.0,-0.0040551983, -0.019983385, 0.079096794,Lying
0.009576807, 0.019153614, 9.885659,0.0010652645, -0.0010652645, 0.0,0.01006638, -0.024796631, 0.10064411,Lying
0.023942016, 0.01436521, 9.907207,0.002130529, -5.326322E-4, -5.326322E-4,0.009916296, -0.013089582, 0.0838871,Lying
0.023942016, 0.02633622, 9.890448,0.0, 0.0, 0.0,0.0026907623, -0.020096768, 0.08149147,Lying
0.016759412, 0.019153614, 9.888053,0.0, 0.0, 0.0,-0.009285578, -0.017528625, 0.088674545,Lying
0.0047884034, 0.021547815, 9.895236,0.0, -5.326322E-4, -5.326322E-4,-0.0022042254, -0.007825054, 0.086278915,Lying
0.011971008, 0.031124622, 9.892841,5.326322E-4, 0.0010652645, -5.326322E-4,0.0027873125, -0.01974728, 0.08148956,Lying
0.016759412, 0.019153614, 9.888053,-0.0010652645, 0.0010652645, 5.326322E-4,0.007760304, -0.019386094, 0.09345913,Lying
0.021547815, 0.019153614, 9.900024,0.0010652645, -0.0010652645, 0.0,0.002735464, -0.019395947, 0.095853806,Lying
0.016759412, 0.019153614, 9.902418,5.326322E-4, 0.0, -5.326322E-4,0.009883664, -0.00980177, 0.07430649,Lying
0.023942016, 0.02873042, 9.880871,-0.0010652645, 0.0, 0.0010652645,0.0074455924, -0.011867467, 0.08867073,Lying
0.021547815, 0.02633622, 9.895236,0.0, -5.326322E-4, 5.326322E-4,1.3431907E-4, -0.0046082586, 0.105428696,Lying
0.01436521, 0.033518825, 9.911995,-5.326322E-4, 0.0, 0.0,-0.0022705607, -0.009233346, 0.098246574,Lying
0.011971008, 0.02873042, 9.904813,-5.326322E-4, 5.326322E-4, 5.326322E-4,0.0097749885, -0.00905435, 0.08866882,Lying
0.023942016, 0.02873042, 9.895236,0.0, 5.326322E-4, 5.326322E-4,0.0050608246, -0.01615536, 0.09824467,Lying
0.019153614, 0.021547815, 9.904813,5.326322E-4, 0.002130529, -0.0010652645,6.6750124E-4, -0.011394888, 0.07909107,Lying
0.01436521, 0.02633622, 9.885659,5.326322E-4, -0.0010652645, 5.326322E-4,0.0028312057, -0.006640423, 0.08866882,Lying
0.016759412, 0.031124622, 9.895236,0.0010652645, 0.0010652645, 0.0015978967,0.007794955, -0.009169361, 0.08387947,Lying
0.021547815, 0.02873042, 9.890448,0.0, -0.0015978967, 0.0,0.007444908, -0.016265431, 0.091062546,Lying
0.021547815, 0.021547815, 9.89763,0.0010652645, 5.326322E-4, -5.326322E-4,0.002729062, -0.011598129, 0.08388138,Lying
0.016759412, 0.02633622, 9.890448,5.326322E-4, 5.326322E-4, -5.326322E-4,0.009967531, -0.016381191, 0.098246574,Lying
0.023942016, 0.021547815, 9.904813,5.326322E-4, -5.326322E-4, 5.326322E-4,2.642665E-4, 3.2285228E-4, 0.08388138,Lying
0.01436521, 0.038307227, 9.890448,0.0026631611, -0.0010652645, 0.0,0.007197423, -0.021633347, 0.081487656,Lying
0.021547815, 0.016759412, 9.888053,5.326322E-4, 5.326322E-4, 0.0,0.0048627006, -0.016816469, 0.086276054,Lying
0.019153614, 0.021547815, 9.892841,0.0, 0.0, 5.326322E-4,0.004822159, -0.014301442, 0.10064125,Lying
0.019153614, 0.023942016, 9.907207,5.326322E-4, -5.326322E-4, 0.0,0.0022906791, -0.009508556, 0.086276054,Lying
0.016759412, 0.02873042, 9.892841,5.326322E-4, 0.0, 5.326322E-4,0.004653531, -0.0142987855, 0.09106445,Lying
0.019153614, 0.023942016, 9.89763,5.326322E-4, 0.0, 0.0010652645,0.0070016813, -0.023825735, 0.081487656,Lying
0.021547815, 0.01436521, 9.888053,0.0010652645, 0.0015978967, 0.0,-0.002293231, -0.01906861, 0.09585285,Lying
0.011971008, 0.019153614, 9.902418,5.326322E-4, 0.0, -5.326322E-4,0.0096299, -0.009442987, 0.08867073,Lying
0.023942016, 0.02873042, 9.895236,5.326322E-4, 5.326322E-4, -5.326322E-4,-0.0022548847, -0.0070684366, 0.08867073,Lying
0.011971008, 0.031124622, 9.895236,0.0, 0.0, 0.0010652645,-0.002267911, -0.01652526, 0.0814867,Lying
0.011971008, 0.021547815, 9.888053,-5.326322E-4, 0.0, 0.0,1.1790916E-4, -0.013913292, 0.08866978,Lying
0.01436521, 0.023942016, 9.895236,0.0, 5.326322E-4, 5.326322E-4,0.0026053367, -0.0066442043, 0.091062546,Lying
0.016759412, 0.031124622, 9.89763,5.326322E-4, 0.0, 0.0,0.0049818484, -0.006670259, 0.08866882,Lying
0.019153614, 0.031124622, 9.895236,-5.326322E-4, -5.326322E-4, 5.326322E-4,0.0048770383, -0.004171498, 0.09824467,Lying
0.019153614, 0.033518825, 9.904813,-5.326322E-4, 0.0, 0.0,0.007243002, -0.01596327, 0.09824467,Lying
0.021547815, 0.021547815, 9.904813,0.0, 5.326322E-4, 0.0010652645,0.009693533, -0.015860172, 0.09824371,Lying
0.023942016, 0.021547815, 9.904813,0.0, 0.0, -5.326322E-4,0.0024693245, -0.013353791, 0.09106064,Lying
0.016759412, 0.023942016, 9.89763,0.0, 0.0026631611, -5.326322E-4,0.002956953, -0.018034466, 0.09106064,Lying
0.016759412, 0.019153614, 9.89763,-5.326322E-4, 0.0, -5.326322E-4,0.0053148, -0.013034347, 0.08627033,Lying
0.019153614, 0.023942016, 9.892841,-0.0010652645, 0.002130529, 0.0,0.017635249, -0.012718439, 0.07669258,Lying
0.031124622, 0.023942016, 9.883265,-0.0010652645, 0.0, 5.326322E-4,0.007991085, -0.010015897, 0.07908535,Lying
0.021547815, 0.02633622, 9.885659,0.0, 5.326322E-4, 5.326322E-4,8.6633116E-4, -0.0075402874, 0.08387375,Lying
0.01436521, 0.02873042, 9.890448,5.326322E-4, 0.0, 0.0010652645,0.005604406, -0.012338158, 0.09105587,Lying
0.019153614, 0.023942016, 9.89763,-5.326322E-4, 0.0, 0.0,0.0079394635, -0.014515916, 0.08626652,Lying
0.021547815, 0.021547815, 9.892841,0.0, 0.0, 0.0,0.010268478, -0.00962621, 0.08866215,Lying
0.023942016, 0.02633622, 9.895236,0.0015978967, 5.326322E-4, 5.326322E-4,0.0031497078, -0.01225663, 0.08147907,Lying
0.016759412, 0.023942016, 9.888053,0.0, -5.326322E-4, 0.0,0.0030180449, -2.3975968E-4, 0.08866215,Lying
0.016759412, 0.035913024, 9.895236,5.326322E-4, 0.0010652645, 0.0,0.01276876, -0.007486267, 0.08387375,Lying
0.02633622, 0.02873042, 9.890448,5.326322E-4, -5.326322E-4, -5.326322E-4,0.012606661, -0.01709411, 0.09105587,Lying
