acc_x,acc_y,acc_z,gyro_x,gyro_y,gyro_z,la_x,la_y,la_z,Activity
-3.0726833, -1.180858, 9.409476,0.09773513, 0.023701435, 0.0019973118,0.0, 0.0, 0.0,Lying
-3.0583265, -1.1590235, 9.491131,0.0966699, 0.03328853, -0.0054593193,-0.019735336, 0.01396513, -0.026406288,Lying
-3.0702906, -1.1255239, 9.414262,0.11477886, 0.024766669, -0.02356828,-0.012046337, -0.023011208, 0.068006516,Lying
-3.1157541, -1.0800604, 9.36162,0.13714875, -0.014646954, -0.04487294,0.049296618, -0.028893948, 0.112835884,Lying
-3.118147, -1.1087742, 9.491131,0.16484481, -0.050864875, -0.0757647,0.022919416, 0.038386166, 0.029473305,Lying
-3.036791, -1.1015958, 9.577272,0.20212796, -0.042343013, -0.10452599,0.014751196, 0.02377075, -0.058807373,Lying
-3.0463624, -0.9987044, 9.507881,0.23728065, -0.008255556, -0.13328728,-0.06275439, -0.01480037, -0.11636543,Lying
-3.0415766, -0.9771689, 9.414262,0.25645486, 0.02157097, -0.13967869,-0.13961673, 0.007127106, -0.12582874,Lying
-3.1253254, -0.9819546, 9.342477,0.25538963, 0.034353767, -0.13222206,-0.0694263, 0.12883526, -0.11830521,Lying
-3.223431, -0.9197412, 9.318549,0.22769356, 0.009853406, -0.12583065,0.10110569, 0.2551216, -0.038233757,Lying
-3.1660035, -0.7423732, 9.313763,0.1744319, -0.06258244, -0.12050448,0.079196215, 0.20770758, -0.04010868,Lying
-2.9838498, -0.55304116, 9.392726,0.05778889, -0.08974588, -0.077362545,0.03727746, 0.25785863, 0.044276237,Lying
-2.981457, -0.46331027, 9.495916,0.03062545, -0.024766669, -0.054992653,0.08632302, 0.22096074, -0.34104252,Lying
-2.9192436, -0.4776672, 9.08136,-0.03808208, 0.056191042, -0.031024912,0.26026917, 0.226551, -0.44060516,Lying
-2.7338, -0.4621139, 8.94138,-0.08868065, 0.10039821, 0.011051793,-0.12690592, 0.26722336, -0.24345207,Lying
-3.1492536, -0.41665024, 9.112467,-0.14247492, 0.0902785, 0.05259588,-0.041900396, 0.20500207, -0.22037601,Lying
-3.0846474, -0.4872385, 9.112467,-0.18934517, 0.02157097, 0.08721595,0.034062147, 0.36810762, 0.10250282,Lying
-3.0116663, -0.3290131, 9.4381895,-0.21704122, -0.021038352, 0.109585844,0.08961129, 0.23351383, 0.12408161,Lying
-2.9479575, -0.48245287, 9.466006,-0.20905198, -0.065245524, 0.12822743,0.15196824, 0.08670694, 0.19101048,Lying
-2.8666015, -0.6550352, 9.54497,-0.20212796, -0.03808208, 0.14207545,0.35832357, 0.076503575, -0.062296867,Lying
-2.635395, -0.6897311, 9.287442,-0.18827994, -0.013049104, 0.13621667,0.44592643, 0.15262729, 0.32629013,Lying
-2.5241287, -0.63200426, 9.690931,-0.14460538, 0.05832151, 0.12556434,0.07176757, 0.17742455, 0.4268074,Lying
-2.9072795, -0.61764735, 9.807282,-0.11850718, 0.12915951, 0.111183695,0.16265345, -0.008094668, 0.09632492,Lying
-2.8342984, -0.81894356, 9.471989,-0.1323552, 0.116376705, 0.08721595,0.2496326, -0.15659702, -0.032126427,Lying
-2.7589245, -0.9939187, 9.332906,-0.14407277, 0.065245524, 0.05685681,0.11390853, -0.1623143, 0.032614708,Lying
-2.902494, -1.029811, 9.392726,-0.14673585, 0.024766669, 0.030225987,-0.022601128, -0.04881084, 0.03171158,Lying
-3.045166, -0.94366944, 9.389137,-0.12702903, -0.009853406, 0.0115844095,-0.115418196, -0.10456371, 0.11042023,Lying
-3.140879, -1.0262218, 9.470792,-0.09880036, -0.04287563, -0.0059919357,-0.19729161, -0.319261, 0.050253868,Lying
-3.2222347, -1.2717853, 9.413065,-0.060451973, -0.05938674, -0.02197043,-0.27743363, -0.442536, 0.05423832,Lying
-3.301497, -1.4237294, 9.42144,-0.027962366, -0.04394086, -0.030492295,-0.34333992, -0.39279354, 0.019144058,Lying
-3.370889, -1.3950156, 9.389137,-0.0061250897, -0.031690683, -0.024633514,-0.34844851, -0.35518968, 0.011008263,Lying
-3.3816566, -1.3722838, 9.383155,0.0023967742, -0.042343013, -0.0177095,-0.32157755, -0.33465207, 0.03709793,Lying
-3.3577285, -1.3639089, 9.413065,2.6630826E-4, -0.05778889, -0.008655018,-0.2356515, -0.25473487, 0.04642105,Lying
-3.268895, -1.2933207, 9.427423,0.0013315412, -0.051397495, -0.007057169,-0.06691837, -0.17660594, -0.019480705,Lying
-3.0930223, -1.2215359, 9.364013,0.005059857, -0.04447348, -0.0075897854,0.05572653, -0.1283474, -0.011071205,Lying
-2.9599216, -1.1769696, 9.37478,0.010386022, -0.04447348, -0.004394086,0.1257217, -6.2835217E-4, 0.04906273,Lying
-2.8773692, -1.0477573, 9.439386,0.01997312, -0.04447348, -0.008655018,0.17245936, 0.070418954, 0.09196186,Lying
-2.8163524, -0.9711869, 9.488738,0.028494984, -0.037549466, -0.01291595,0.19099617, 0.12275803, 0.09314537,Lying
-2.784049, -0.9098708, 9.495916,0.032755915, -0.025299285, -0.019307349,0.2237134, 0.14631295, 0.05901909,Lying
-2.7385855, -0.87637126, 9.466006,0.030092834, -0.013581721, -0.022503048,0.20064712, 0.14079016, 0.037177086,Lying
-2.751746, -0.87278205, 9.446864,0.023701435, 0.0034620073, -0.021437814,0.118902445, 0.16895294, 0.009043694,Lying
-2.8295128, -0.8356933, 9.419047,0.014646954, 0.015179571, -0.015579033,0.058305264, 0.13378543, -0.023105621,Lying
-2.8905299, -0.8644072, 9.385548,0.0039946237, 0.01837527, -0.010785485,0.010810852, 0.07943034, -0.04685402,Lying
-2.940779, -0.91615194, 9.359226,-0.005059857, 0.021038352, -0.0022636203,-0.0217247, 0.046554387, -0.100749016,Lying
-2.9778678, -0.9484551, 9.300603,-0.011451255, 0.02157097, 0.0030625449,-0.09581542, 0.034145117, -0.10985184,Lying
-3.0595229, -0.9616156, 9.286245,-0.018907886, 0.008788172, 0.007856093,-0.1024847, -0.039313793, -0.0682888,Lying
-3.071487, -1.0393823, 9.324531,-0.022636201, -0.007190323, 0.012649642,-0.101275206, -0.075196266, -0.03820038,Lying
-3.0726833, -1.0812567, 9.353245,-0.02423405, -0.014114338, 0.014247492,-0.08387375, -0.08895719, -0.016410828,Lying
-3.0559337, -1.1015958, 9.37478,-0.014114338, -0.007190323, 0.013714875,-0.08393359, -0.08112538, -0.016241074,Lying
-2.9048867, -1.0250254, 9.356833,-0.013049104, -0.012516488, 0.007323477,-0.08323574, -0.07650375, -0.016155243,Lying
-2.9072795, -1.0322039, 9.42144,-0.011983871, -0.008255556, 0.00838871,0.06410718, 0.0018134117, -0.033218384,Lying
-2.914458, -1.017847, 9.4070835,-0.0066577066, -0.0029293909, 0.007323477,0.059269667, -0.004418969, 0.030373573,Lying
-2.9168508, -1.0130613, 9.404691,-0.0034620073, 0.0013315412, 0.004127778,0.05066061, 0.010007739, 0.015609741,Lying
-2.9503503, -1.0322039, 9.399904,-0.0013315412, 0.0023967742, 9.320789E-4,0.04709792, 0.014490962, 0.012931824,Lying
-2.9838498, -1.0465608, 9.38794,-0.0013315412, 2.6630826E-4, -0.0011983871,0.013127804, -0.004211664, 0.007909775,Lying
-2.9982069, -1.0609177, 9.375977,-0.0013315412, -0.0039946237, -0.0033288533,-0.02051258, -0.017539382, -0.0041332245,Lying
-3.0005996, -1.0489537, 9.371191,-2.6630826E-4, -0.0018641578, -0.0054593193,-0.034167767, -0.03049314, -0.015675545,Lying
-3.0272198, -1.070489, 9.392726,7.9892477E-4, 2.6630826E-4, -0.0054593193,-0.035409212, -0.017733335, -0.019786835,Lying
-3.0080771, -1.0824531, 9.399904,-0.0013315412, -0.0018641578, -0.0054593193,-0.06014633, -0.037436843, 0.0016336441,Lying
-2.9886355, -1.0657034, 9.375977,-0.0023967742, -0.010386022, -0.004394086,-0.04156518, -0.04709041, 0.007984161,Lying
-2.9838498, -1.0800604, 9.390333,-2.6630826E-4, -0.012516488, -0.0022636203,-0.023941278, -0.029136062, -0.016140938,Lying
-2.969493, -1.0561321, 9.395119,0.0029293909, -0.007190323, -0.0022636203,-0.019845963, -0.042454123, -0.0021734238,Lying
-2.9599216, -1.0250254, 9.4070835,0.0039946237, -0.005059857, -0.0022636203,-0.0062446594, -0.018468857, 0.0021648407,Lying
-2.9647074, -1.0393823, 9.395119,0.0018641578, -0.010386022, -0.0011983871,0.0013411045, 0.011984229, 0.013047218,Lying
-2.940779, -1.044168, 9.378369,-0.0013315412, -0.011451255, -0.0022636203,-0.0054314137, -0.001943469, 4.1294098E-4,Lying
-2.914458, -1.0513464, 9.402297,-0.0034620073, -0.009320789, -0.0011983871,0.016210556, -0.005823493, -0.01626873,Lying
-2.940779, -1.0537393, 9.4070835,-0.0045272405, -0.0061250897, -1.3315413E-4,0.0400393, -0.0117594, 0.007173538,Lying
-2.9359934, -1.0465608, 9.4070835,-0.0034620073, -0.0018641578, 9.320789E-4,0.012912989, -0.013117433, 0.011528015,Lying
-2.9359934, -1.0657034, 9.404691,-0.0023967742, 2.6630826E-4, 0.0019973118,0.017195702, -0.0054169893, 0.01120472,Lying
-2.940779, -1.058525, 9.404691,-0.0034620073, 2.6630826E-4, 9.320789E-4,0.016683578, -0.02319336, 0.00859642,Lying
-2.9383862, -1.0633105, 9.392726,-0.0013315412, 0.0023967742, -1.3315413E-4,0.011916637, -0.015227795, 0.008469582,Lying
-2.9431717, -1.0824531, 9.380762,-2.6630826E-4, 0.0066577066, 0.0030625449,0.015079021, -0.019475698, -0.0030126572,Lying
-2.9766715, -1.0752747, 9.354441,-0.0013315412, 0.0034620073, 0.0030625449,0.01061964, -0.037285447, -0.014271736,Lying
-2.9671001, -1.0800604, 9.383155,-0.0023967742, 2.6630826E-4, 0.004127778,-0.022028923, -0.028899312, -0.039206505,Lying
-2.9623144, -1.0776675, 9.390333,-0.0013315412, 0.0055924733, 0.004127778,-0.010955572, -0.03256142, -0.009773254,Lying
-2.9790642, -1.0633105, 9.4070835,-0.0013315412, 0.0066577066, 0.004127778,-0.004691601, -0.029154778, -0.0021018982,Lying
-2.955136, -1.0513464, 9.375977,-2.6630826E-4, 0.0023967742, 0.0030625449,-0.020260572, -0.014414072, 0.014316559,Lying
-2.9742785, -1.070489, 9.390333,-2.6630826E-4, 2.6630826E-4, 0.004127778,0.003695488, -0.0025399923, -0.016246796,Lying
-2.969493, -1.0537393, 9.383155,0.0018641578, 0.0023967742, 0.0030625449,-0.014468193, -0.021485686, -0.0017156601,Lying
-2.9647074, -1.0393823, 9.364013,0.0039946237, 0.0045272405, 0.0030625449,-0.008488655, -0.0054473877, -0.008431435,Lying
-2.9742785, -1.044168, 9.354441,0.0039946237, 0.0023967742, 0.0019973118,-0.0031116009, 0.0078015327, -0.026621819,Lying
-2.9671001, -1.0465608, 9.364013,7.9892477E-4, -0.0018641578, 9.320789E-4,-0.01259017, 0.0027149916, -0.035119057,Lying
-2.9647074, -1.0513464, 9.375977,7.9892477E-4, -0.0029293909, -1.3315413E-4,-0.0057549477, 1.7380714E-4, -0.024868965,Lying
-2.9503503, -1.0537393, 9.375977,7.9892477E-4, -0.0018641578, -1.3315413E-4,-0.0035881996, -0.0045984983, -0.012584686,Lying
-2.952743, -1.0561321, 9.38794,-2.6630826E-4, -0.0018641578, 9.320789E-4,0.010105133, -0.006765723, -0.012266159,Lying
-2.9455647, -1.0537393, 9.38794,-0.0013315412, -0.0061250897, -1.3315413E-4,0.0063505173, -0.008610249, -5.979538E-4,Lying
-2.9240294, -1.0680962, 9.38794,-0.0023967742, -0.0061250897, 9.320789E-4,0.012004852, -0.0056319237, -8.764267E-4,Lying
-2.9479575, -1.044168, 9.375977,7.9892477E-4, -0.0029293909, 0.0019973118,0.031957388, -0.019592643, -0.0010299683,Lying
-2.9503503, -1.0537393, 9.392726,-2.6630826E-4, -7.9892477E-4, 0.0019973118,0.0076277256, 0.004151821, -0.0126161575,Lying
-2.9503503, -1.0513464, 9.378369,-2.6630826E-4, 2.6630826E-4, 0.0030625449,0.0051612854, -0.0053738356, 0.0040330887,Lying
-2.9312077, -1.0489537, 9.385548,-0.0023967742, -0.0029293909, 0.0030625449,0.004521847, -0.0026232004, -0.01011467,Lying
-2.940779, -1.0345967, 9.385548,-0.0013315412, -7.9892477E-4, 0.004127778,0.022830725, -2.1409988E-4, -0.0028505325,Lying
-2.9479575, -1.0250254, 9.375977,0.0018641578, 0.0023967742, 0.0019973118,0.013269901, 0.013241529, -0.0026597977,Lying
-2.955136, -1.0369896, 9.375977,0.0018641578, 0.0023967742, -1.3315413E-4,0.006300926, 0.021737099, -0.011738777,Lying
-2.969493, -1.0537393, 9.399904,-0.0013315412, 0.0013315412, -0.0011983871,-6.4730644E-4, 0.009739637, -0.011247635,Lying
-2.9359934, -1.0728818, 9.378369,-0.0034620073, -0.005059857, 9.320789E-4,-0.015411615, -0.0062271357, 0.012066841,Lying
-2.9790642, -1.0776675, 9.3664055,-0.0045272405, -0.0061250897, 9.320789E-4,0.016440392, -0.023788452, -0.009431839,Lying
-2.969493, -1.0872388, 9.380762,-0.0013315412, 0.0013315412, 9.320789E-4,-0.02553773, -0.027441263, -0.02059555,Lying
-2.9790642, -1.084846, 9.378369,0.0029293909, 0.008788172, 0.004127778,-0.013779402, -0.03654301, -0.005581856,Lying
-2.9790642, -1.0992029, 9.395119,7.9892477E-4, 0.0066577066, 0.005193011,-0.02129507, -0.033444166, -0.0073547363,Lying
-2.952743, -1.0920244, 9.414262,-0.0023967742, -0.0029293909, 0.005193011,-0.021009445, -0.046087384, 0.008980751,Lying
-2.9575288, -1.0968101, 9.3975115,-0.0023967742, -0.0061250897, 0.004127778,0.004146099, -0.03740847, 0.02690792,Lying
-2.952743, -1.0872388, 9.3664055,0.0029293909, 0.0013315412, 0.0030625449,-3.2925606E-4, -0.04148805, 0.00981617,Lying
-2.9599216, -1.0633105, 9.368798,0.008255556, 0.0055924733, -1.3315413E-4,0.005304098, -0.03230989, -0.020466805,Lying
-2.9647074, -1.0920244, 9.383155,0.009320789, -7.9892477E-4, -0.0022636203,-0.002012968, -0.00961411, -0.017703056,Lying
-2.981457, -1.0776675, 9.399904,0.007190323, -0.0061250897, -0.004394086,-0.0077643394, -0.038118005, -0.003709793,Lying
-2.9623144, -1.0657034, 9.402297,0.007190323, -0.009320789, -0.0054593193,-0.02549553, -0.023931384, 0.011953354,Lying
-2.9336007, -1.0489537, 9.383155,0.009320789, -0.0029293909, -0.0033288533,-0.0067157745, -0.013033152, 0.01351738,Lying
-2.926422, -0.99631155, 9.378369,0.013581721, -0.005059857, -0.004394086,0.020298958, 0.001432538, -0.0060157776,Lying
-2.9072795, -1.0106685, 9.399904,0.013581721, -0.007190323, -0.0075897854,0.025127888, 0.050328314, -0.011123657,Lying
-2.8905299, -1.017847, 9.385548,0.010386022, -0.005059857, -0.006524552,0.04177642, 0.033267856, 0.009595871,Lying
-2.914458, -0.99631155, 9.399904,0.0061250897, -0.008255556, -0.0033288533,0.055047035, 0.02430451, -0.0052042007,Lying
-2.9383862, -1.0250254, 9.359226,0.005059857, 0.0023967742, -1.3315413E-4,0.030475855, 0.04343897, 0.00889492,Lying
-2.9790642, -1.0130613, 9.34487,0.007190323, 0.01837527, 0.0030625449,0.009642124, 0.012747049, -0.029881477,Lying
-3.0080771, -1.0082756, 9.354441,0.0061250897, 0.023701435, 0.006258244,-0.025690794, 0.022454381, -0.041571617,Lying
-2.9958138, -1.0274183, 9.340084,0.0018641578, 0.022636201, 0.010519176,-0.048377752, 0.02541244, -0.029687881,Lying
-3.0032916, -1.029811, 9.36162,-0.0045272405, 0.013049104, 0.012649642,-0.03260207, 0.0061365366, -0.041766167,Lying
-3.0005996, -1.0393823, 9.34487,-0.008788172, 0.0077229394, 0.013714875,-0.03681922, 0.0044113398, -0.01892662,Lying
-2.9718857, -1.0226326, 9.320942,-0.0055924733, 0.015179571, 0.015845342,-0.030272722, -0.0048952103, -0.03354454,Lying
-3.0080771, -0.99631155, 9.332906,-0.0034620073, 0.01837527, 0.013714875,0.0020673275, 0.011319399, -0.054476738,Lying
-3.022434, -0.98913306, 9.337691,-0.0055924733, 0.008788172, 0.006258244,-0.031049967, 0.037057698, -0.040475845,Lying
-3.0080771, -0.9939187, 9.318549,-0.008788172, -0.0029293909, -0.0022636203,-0.0444808, 0.044465125, -0.034490585,Lying
-2.993421, -0.9987044, 9.330513,-0.014114338, -0.015712187, -0.009720251,-0.032102108, 0.041418016, -0.05247879,Lying
-2.969493, -1.0513464, 9.349655,-0.016244804, -0.026364516, -0.018242115,-0.022204876, 0.039334953, -0.04032421,Lying
-2.9503503, -1.1135598, 9.402297,-0.017310036, -0.031690683, -0.021437814,-0.004386902, -0.008624077, -0.021903038,Lying
-2.955136, -1.1255239, 9.431011,-0.019440502, -0.034886383, -0.02037258,0.007652521, -0.06392777, 0.028190613,Lying
-2.9383862, -1.1398809, 9.450453,-0.015179571, -0.03062545, -0.01611165,-0.0030260086, -0.06976032, 0.053616524,Lying
-2.955136, -1.1470593, 9.467203,-0.010918639, -0.014646954, -0.0075897854,0.010512829, -0.07895446, 0.06974983,Lying
-2.952743, -1.1542379, 9.423833,-0.0077229394, -0.0039946237, -0.0011983871,-0.006788969, -0.0818243, 0.08356476,Lying
-2.9336007, -1.1470593, 9.416655,-0.0066577066, 0.0013315412, 0.005193011,-0.003909111, -0.08514619, 0.039305687,Lying
-2.9216363, -1.1350952, 9.42144,-0.0066577066, 0.0066577066, 0.010519176,0.016146898, -0.07476139, 0.031558037,Lying
-2.9240294, -1.1327025, 9.402297,-2.6630826E-4, 0.010918639, 0.012649642,0.029389381, -0.06135416, 0.03575325,Lying
-2.9120653, -1.1135598, 9.392726,0.005059857, 0.013049104, 0.014780108,0.028715372, -0.05872357, 0.016663551,Lying
-2.9455647, -1.0824531, 9.385548,0.009320789, 0.011983871, 0.010519176,0.041686058, -0.040496945, 0.0073280334,Lying
-2.9575288, -1.0680962, 9.349655,0.014646954, 0.008788172, 0.004127778,0.009526014, -0.011891484, 3.299713E-4,Lying
-2.9790642, -1.0537393, 9.375977,0.017842652, 0.008788172, 9.320789E-4,-7.865429E-4, -8.4006786E-4, -0.034285545,Lying
-2.9623144, -1.0417751, 9.368798,0.015712187, 0.0077229394, -0.0011983871,-0.020251751, 0.010344267, -0.0075569153,Lying
-2.9623144, -1.0345967, 9.364013,0.011451255, 0.0013315412, -0.0011983871,-0.0031590462, 0.01960063, -0.014410019,Lying
-2.969493, -1.0274183, 9.359226,0.010386022, -0.0018641578, -0.0022636203,-0.0034372807, 0.024168134, -0.01887703,Lying
-2.955136, -0.9939187, 9.373584,0.010386022, 0.0023967742, 9.320789E-4,-0.009828329, 0.028402686, -0.022953987,Lying
-2.952743, -0.9987044, 9.3664055,0.010386022, 0.0066577066, 0.0019973118,0.005616188, 0.057908475, -0.008130074,Lying
-2.9647074, -1.015454, 9.356833,0.007190323, 0.0055924733, 9.320789E-4,0.008756638, 0.05001098, -0.014636993,Lying
-2.9599216, -1.0226326, 9.36162,0.0029293909, -7.9892477E-4, 9.320789E-4,-0.003242731, 0.031558752, -0.023516655,Lying
-2.9718857, -1.0130613, 9.356833,7.9892477E-4, 0.0023967742, 9.320789E-4,0.0019376278, 0.023364663, -0.01798439,Lying
-3.0032916, -1.0369896, 9.347262,-0.0013315412, 0.0055924733, 0.0019973118,-0.008672714, 0.03197348, -0.021676064,Lying
-3.0080771, -1.0657034, 9.340084,-0.0034620073, 0.0066577066, 9.320789E-4,-0.037285328, 0.008316517, -0.029772758,Lying
-3.0080771, -1.0680962, 9.375977,-0.0077229394, 2.6630826E-4, 9.320789E-4,-0.040612936, -0.018423438, -0.035560608,Lying
-2.9742785, -1.0944172, 9.375977,-0.009853406, -0.007190323, 9.320789E-4,-0.040528536, -0.018419623, 1.4781952E-4,Lying
-2.981457, -1.0944172, 9.373584,-0.0077229394, -0.008255556, 9.320789E-4,-0.008220911, -0.04194963, -1.7166138E-4,Lying
-2.9742785, -1.0609177, 9.402297,-0.0055924733, -0.009320789, 9.320789E-4,-0.01654315, -0.039605975, -0.002896309,Lying
-2.9599216, -1.0680962, 9.4070835,-0.0013315412, -0.0018641578, 0.0019973118,-0.009341717, -0.005742073, 0.024907112,Lying
-2.9431717, -1.0561321, 9.3975115,7.9892477E-4, 2.6630826E-4, 0.0030625449,0.0049672127, -0.012812853, 0.028705597,Lying
-2.9479575, -1.0657034, 9.392726,0.0018641578, -0.0029293909, 0.004127778,0.020565748, -0.0013738871, 0.018280983,Lying
-2.9383862, -1.0537393, 9.356833,7.9892477E-4, 0.0013315412, 0.0030625449,0.015542746, -0.010905981, 0.013097763,Lying
-2.952743, -1.0393823, 9.364013,0.0018641578, 0.0013315412, 9.320789E-4,0.02453804, 6.5112114E-4, -0.022037506,Lying
-2.9886355, -1.0680962, 9.38794,7.9892477E-4, 0.0013315412, 9.320789E-4,0.0100774765, 0.014328003, -0.014299393,Lying
-2.9503503, -1.058525, 9.364013,-2.6630826E-4, 2.6630826E-4, 9.320789E-4,-0.02493167, -0.013942122, 0.009352684,Lying
-2.9623144, -1.0537393, 9.375977,-0.0013315412, -0.0039946237, -1.3315413E-4,0.012228489, -0.0039699078, -0.014315605,Lying
-2.9599216, -1.0776675, 9.368798,-2.6630826E-4, -0.0029293909, -0.0022636203,-3.2925606E-4, 9.685755E-4, -0.002421379,Lying
-2.9790642, -1.0657034, 9.378369,0.0029293909, 0.0013315412, -0.0022636203,0.0021841526, -0.022615194, -0.009272575,Lying
-2.993421, -1.0513464, 9.3975115,0.0029293909, 0.0023967742, -1.3315413E-4,-0.015994072, -0.010798335, 3.7288666E-4,Lying
-2.9718857, -1.0513464, 9.375977,0.0018641578, 0.0023967742, 9.320789E-4,-0.028913498, 0.0030702353, 0.018981934,Lying
-2.9575288, -1.0537393, 9.356833,0.0018641578, 0.0013315412, 0.0030625449,-0.006815195, 0.0024622679, -0.0024557114,Lying
-2.9766715, -1.0561321, 9.36162,0.0018641578, 0.0034620073, 0.004127778,0.008001089, -5.0091743E-4, -0.020741463,Lying
-2.9790642, -1.0417751, 9.364013,7.9892477E-4, 0.0034620073, 0.004127778,-0.010095596, -0.0031752586, -0.015240669,Lying
-2.9790642, -1.0369896, 9.354441,7.9892477E-4, 0.0023967742, 0.005193011,-0.011548281, 0.010388613, -0.012299538,Lying
-2.9718857, -1.0369896, 9.368798,-2.6630826E-4, 0.0013315412, 0.0030625449,-0.010869741, 0.014548063, -0.021072388,Lying
-2.969493, -1.0345967, 9.371191,-0.0023967742, -0.0029293909, 9.320789E-4,-0.004069805, 0.014438152, -0.0065956116,Lying
-2.969493, -1.044168, 9.371191,-0.0013315412, -0.005059857, -1.3315413E-4,-0.0025286674, 0.01651764, -0.004322052,Lying
-2.9766715, -1.0489537, 9.385548,-2.6630826E-4, -7.9892477E-4, -1.3315413E-4,-0.0025949478, 0.0067595243, -0.004219055,Lying
-2.9647074, -1.0513464, 9.364013,7.9892477E-4, 0.0013315412, -1.3315413E-4,-0.009225845, 0.0017681122, 0.00987339,Lying
-2.9742785, -1.0513464, 9.347262,-2.6630826E-4, -0.0018641578, -1.3315413E-4,0.0023195744, -5.514622E-4, -0.011398315,Lying
-2.955136, -1.0537393, 9.375977,-0.0013315412, -0.0018641578, -1.3315413E-4,-0.0073604584, -2.8824806E-4, -0.02730751,Lying
-2.9623144, -1.0561321, 9.371191,-0.0023967742, -7.9892477E-4, 0.0019973118,0.011301994, -0.00227952, 0.0013904572,Lying
-2.969493, -1.0776675, 9.385548,-0.0023967742, -0.0018641578, 9.320789E-4,0.0036592484, -0.0041439533, -0.0033464432,Lying
-2.9623144, -1.0824531, 9.395119,-0.0034620073, -0.0029293909, -1.3315413E-4,-0.0039401054, -0.024221301, 0.010561943,Lying
-2.955136, -1.0680962, 9.392726,-2.6630826E-4, -0.0029293909, 9.320789E-4,0.0026290417, -0.028050065, 0.019310951,Lying
-2.9718857, -1.070489, 9.380762,7.9892477E-4, -7.9892477E-4, -1.3315413E-4,0.009337425, -0.013356447, 0.016289711,Lying
-2.9790642, -1.058525, 9.380762,0.0018641578, 0.0013315412, -1.3315413E-4,-0.0069532394, -0.015551925, 0.0042037964,Lying
-2.9671001, -1.0537393, 9.349655,0.0018641578, -7.9892477E-4, 9.320789E-4,-0.013797283, -0.003840685, 0.003979683,Lying
-2.9718857, -1.0393823, 9.375977,7.9892477E-4, -7.9892477E-4, 0.0019973118,-0.0018668175, 6.635189E-4, -0.02631855,Lying
-2.9671001, -1.0513464, 9.380762,7.9892477E-4, -7.9892477E-4, 0.004127778,-0.0065009594, 0.014159799, -3.2424927E-5,Lying
-2.969493, -1.0322039, 9.378369,7.9892477E-4, 0.0023967742, 0.0030625449,-0.0011696815, 0.0017946959, 0.004716873,Lying
-2.9766715, -1.0082756, 9.36162,7.9892477E-4, 0.0045272405, 0.0019973118,-0.0026037693, 0.02000463, 0.0024814606,Lying
-2.9647074, -1.0489537, 9.347262,7.9892477E-4, 2.6630826E-4, 9.320789E-4,-0.00940299, 0.042298794, -0.013813019,Lying
-2.952743, -1.0633105, 9.390333,-0.0023967742, -0.0029293909, 9.320789E-4,0.0019795895, 0.0018984079, -0.027365685,Lying
-2.9431717, -1.070489, 9.3664055,-0.0045272405, -0.010386022, -0.0022636203,0.011589766, -0.011124134, 0.0147295,Lying
-2.940779, -1.0872388, 9.371191,-0.0034620073, -0.012516488, -0.0011983871,0.018203735, -0.017014623, -0.009554863,Lying
-2.9623144, -1.0824531, 9.390333,-2.6630826E-4, -0.0018641578, -0.0011983871,0.019550323, -0.03254187, -0.0047073364,Lying
-2.9575288, -1.0800604, 9.383155,-2.6630826E-4, 2.6630826E-4, -0.0011983871,-0.0019237995, -0.026710749, 0.013993263,Lying
-2.9359934, -1.0752747, 9.404691,-0.0013315412, -0.0018641578, -0.0011983871,0.0024096966, -0.023199677, 0.006500244,Lying
-2.928815, -1.070489, 9.395119,-2.6630826E-4, -0.0029293909, 0.0019973118,0.022682428, -0.017859936, 0.02696228,Lying
-2.926422, -1.0824531, 9.385548,0.0018641578, 0.0013315412, 0.0030625449,0.029167175, -0.013138294, 0.01683712,Lying
-2.952743, -1.058525, 9.364013,0.0029293909, 0.0066577066, 0.005193011,0.031798124, -0.025093436, 0.0073280334,Lying
-2.952743, -1.0465608, 9.3664055,0.005059857, 0.0066577066, 0.004127778,0.006531477, -0.0022354126, -0.0134859085,Lying
-3.0032916, -1.0417751, 9.356833,0.0061250897, 0.009853406, 0.004127778,0.008149624, 0.008091927, -0.010290146,Lying
-2.981457, -1.0322039, 9.337691,0.005059857, 0.010918639, 0.0030625449,-0.038744926, 0.011377692, -0.018696785,Lying
-2.9862428, -1.0130613, 9.340084,0.0018641578, 0.0066577066, 0.004127778,-0.015347719, 0.01969552, -0.036262512,Lying
-3.01047, -1.044168, 9.342477,-0.0013315412, 0.0013315412, 0.004127778,-0.019152403, 0.03756869, -0.032637596,Lying
-2.9982069, -1.0489537, 9.337691,-0.0045272405, -0.0018641578, 0.005193011,-0.04190421, 0.006727457, -0.029250145,Lying
-2.9671001, -1.0345967, 9.364013,-0.0055924733, -0.0018641578, 0.006258244,-0.029141665, 0.0025162697, -0.032901764,Lying
-2.9647074, -1.0633105, 9.375977,-0.0066577066, -0.005059857, 0.005193011,0.0011296272, 0.017219901, -0.0064868927,Lying
-2.955136, -1.070489, 9.375977,-0.0077229394, -0.007190323, 0.0030625449,0.00218153, -0.009937286, 0.00505352,Lying
-2.9503503, -1.0824531, 9.390333,-0.0066577066, -0.009320789, 0.0019973118,0.009743929, -0.015478253, 0.0044908524,Lying
-2.9623144, -1.0657034, 9.368798,-0.0066577066, -0.008255556, -1.3315413E-4,0.012571812, -0.025346756, 0.01790142,Lying
-2.9599216, -1.0393823, 9.36162,-0.0045272405, -0.005059857, -0.0011983871,-3.569126E-4, -0.007417679, -0.003730774,Lying
-2.9766715, -1.0561321, 9.36162,-0.0013315412, -7.9892477E-4, -0.0011983871,0.0017986298, 0.018606663, -0.010573387,Lying
-2.9503503, -1.084846, 9.359226,-0.0013315412, -0.0018641578, -0.0022636203,-0.014854193, 0.002142191, -0.01030159,Lying
-2.9168508, -1.0968101, 9.402297,-0.0034620073, -0.009320789, -0.0011983871,0.009422541, -0.025032401, -0.012731552,Lying
-2.9072795, -1.1159526, 9.419047,-0.0045272405, -0.01677742, -0.0033288533,0.038463116, -0.034781218, 0.02851963,Lying
-2.9359934, -1.1039885, 9.395119,-0.0023967742, -0.01677742, -0.0054593193,0.0433352, -0.05141282, 0.042881966,Lying
-2.9623144, -1.0489537, 9.3664055,0.005059857, -0.0061250897, -0.0075897854,0.012851477, -0.038597465, 0.017848015,Lying
-2.9671001, -1.0369896, 9.368798,0.010386022, 0.0077229394, -0.0054593193,-0.011782646, 0.0143972635, -0.01031208,Lying
-2.952743, -1.0202397, 9.349655,0.008255556, 0.0077229394, -0.0022636203,-0.014694214, 0.024149537, -0.007388115,Lying
-2.9479575, -1.0345967, 9.32812,-2.6630826E-4, -0.005059857, 0.0019973118,-0.0011758804, 0.039489627, -0.025946617,Lying
-2.9312077, -1.0489537, 9.3664055,-0.0055924733, -0.0029293909, 0.006258244,0.0030932426, 0.024925828, -0.045975685,Lying
-2.9383862, -1.044168, 9.375977,-0.0077229394, 0.0066577066, 0.00838871,0.020551205, 0.011107564, -0.0068655014,Lying
-2.9240294, -1.044168, 9.380762,-0.008788172, 0.008788172, 0.009453943,0.0146718025, 0.016404629, 0.0032949448,Lying
-2.9312077, -1.0657034, 9.375977,-0.010918639, 0.0034620073, 0.00838871,0.028856993, 0.017331362, 0.008229256,Lying
-2.9503503, -1.0800604, 9.368798,-0.011983871, -0.0029293909, 0.005193011,0.020525694, -0.0022416115, 0.0033988953,Lying
-2.9958138, -1.0968101, 9.3664055,-0.009853406, -7.9892477E-4, 0.0030625449,0.0012304783, -0.014473081, -0.0035076141,Lying
-3.0296125, -1.0776675, 9.352048,-0.0034620073, 0.0066577066, 0.0030625449,-0.041563034, -0.02975452, -0.005264282,Lying
-3.0272198, -1.084846, 9.340084,7.9892477E-4, 0.015179571, 0.0030625449,-0.069833755, -0.010552406, -0.018146515,Lying
-3.012863, -1.1087742, 9.356833,-2.6630826E-4, 0.011983871, 0.005193011,-0.06295347, -0.017392635, -0.02844143,Lying
-2.9742785, -1.1255239, 9.349655,-0.0066577066, -0.0029293909, 0.006258244,-0.047361612, -0.039135575, -0.011315346,Lying
-2.9503503, -1.1207383, 9.364013,-0.010918639, -0.011451255, 0.006258244,-0.01065135, -0.05244708, -0.018310547,Lying
-2.940779, -1.084846, 9.395119,-0.009853406, -0.010386022, 0.005193011,0.0111095905, -0.044604063, -0.0041913986,Lying
-2.9383862, -1.0680962, 9.404691,-0.0055924733, -0.0061250897, 0.004127778,0.018989563, -0.0076184273, 0.025818825,Lying
-2.9192436, -1.0513464, 9.385548,-0.0023967742, -0.007190323, 0.0019973118,0.01942563, 0.009159923, 0.033863068,Lying
-2.9192436, -1.0609177, 9.395119,-2.6630826E-4, -0.010386022, -1.3315413E-4,0.035443544, 0.025118828, 0.01362896,Lying
-2.885744, -1.0992029, 9.380762,0.0018641578, -0.0061250897, -0.0022636203,0.033118486, 0.014814019, 0.022052765,Lying
-2.9312077, -1.0920244, 9.383155,0.0018641578, -0.0061250897, -0.0033288533,0.06326771, -0.022875309, 0.007040024,Lying
-2.9647074, -1.084846, 9.375977,0.0018641578, -0.005059857, -0.004394086,0.016164303, -0.015251875, 0.008797646,Lying
-2.969493, -1.0992029, 9.349655,0.0029293909, 0.0045272405, -0.004394086,-0.016080856, -0.008072734, 0.0017499924,Lying
-3.0056844, -1.1039885, 9.356833,0.005059857, 0.008788172, -0.0022636203,-0.018660069, -0.022472858, -0.023391724,Lying
-2.9958138, -1.084846, 9.3664055,0.0029293909, 0.0034620073, 9.320789E-4,-0.052141428, -0.026929736, -0.01553154,Lying
-2.9862428, -1.084846, 9.368798,-0.0013315412, -0.0039946237, 0.004127778,-0.041773558, -0.007501483, -0.0059509277,Lying
-2.9431717, -1.0800604, 9.390333,-2.6630826E-4, -0.0018641578, 0.006258244,-0.0313282, -0.007555604, -0.0035381317,Lying
-2.9359934, -1.0633105, 9.371191,0.0018641578, 0.0023967742, 0.007323477,0.011969805, -0.003416419, 0.017515182,Lying
-2.9120653, -1.0609177, 9.371191,0.0029293909, 0.0045272405, 0.00838871,0.019491673, 0.011912584, -0.0014009476,Lying
-2.9216363, -1.0752747, 9.385548,0.0029293909, 0.0055924733, 0.006258244,0.043118477, 0.0129567385, -0.0011014938,Lying
-2.9431717, -1.058525, 9.378369,7.9892477E-4, 0.0013315412, 0.004127778,0.032735348, -0.0017434359, 0.012887001,Lying
-2.9359934, -1.0872388, 9.380762,-2.6630826E-4, -7.9892477E-4, 0.004127778,0.01074028, 0.014339328, 0.0054683685,Lying
-2.9671001, -1.0680962, 9.383155,0.0029293909, 0.0045272405, 0.004127778,0.018215418, -0.014680505, 0.00779438,Lying
-2.9623144, -1.0513464, 9.380762,0.0039946237, 0.0066577066, 0.0030625449,-0.011250496, 0.0034493208, 0.010141373,Lying
-2.9838498, -1.0609177, 9.356833,0.0061250897, 0.0066577066, 0.0030625449,-0.0049996376, 0.018279076, 0.0077352524,Lying
-3.0032916, -1.0633105, 9.371191,0.0061250897, 0.008788172, 0.0030625449,-0.024049759, 0.0071429014, -0.0153102875,Lying
-2.952743, -1.0465608, 9.349655,0.0061250897, 0.0066577066, 0.0030625449,-0.040528774, 0.0033242702, -6.580353E-4,Lying
-2.9623144, -1.058525, 9.340084,0.0061250897, 0.0055924733, 0.0019973118,0.0104830265, 0.01821816, -0.021286964,Lying
-2.9479575, -1.070489, 9.352048,0.0039946237, 0.0045272405, 9.320789E-4,0.0016918182, 0.0052679777, -0.0296669,Lying
-2.9623144, -1.0776675, 9.3664055,0.0018641578, 0.0045272405, -1.3315413E-4,0.016328335, -0.0068104267, -0.016884804,Lying
-2.9623144, -1.1015958, 9.385548,0.0018641578, 2.6630826E-4, -0.0033288533,0.0018651485, -0.013674974, -0.0024518967,Lying
-2.9455647, -1.0872388, 9.4070835,0.0029293909, -0.0029293909, -0.006524552,0.0011432171, -0.03652954, 0.015929222,Lying
-2.9503503, -1.0561321, 9.364013,0.0039946237, -0.0039946237, -0.006524552,0.016464949, -0.02176249, 0.035931587,Lying
-3.0032916, -1.058525, 9.364013,0.009320789, 2.6630826E-4, -0.009720251,0.0111300945, 0.007952571, -0.0071229935,Lying
-2.9982069, -1.0776675, 9.373584,0.012516488, 0.008788172, -0.008655018,-0.038798094, 0.0036278963, -0.0066452026,Lying
-2.9958138, -1.0680962, 9.356833,0.011451255, 0.0055924733, -0.0054593193,-0.031992674, -0.016750693, 0.002922058,Lying
-3.0056844, -1.0609177, 9.347262,0.0061250897, -0.0061250897, -0.004394086,-0.029796362, -0.007773757, -0.013855934,Lying
-3.0032916, -1.0537393, 9.349655,0.008255556, -0.010386022, -0.0054593193,-0.040033817, -0.0017322302, -0.023410797,Lying
-2.9766715, -1.0369896, 9.347262,0.011451255, 2.6630826E-4, -0.004394086,-0.03643012, 0.0034786463, -0.020533562,Lying
-2.9312077, -1.029811, 9.356833,0.008255556, 0.0034620073, -0.0011983871,-0.009155989, 0.018167734, -0.022136688,Lying
-2.9431717, -1.0345967, 9.34487,0.0018641578, -0.010386022, -1.3315413E-4,0.03328705, 0.024184108, -0.012763023,Lying
-2.914458, -1.0345967, 9.36162,-0.0055924733, -0.017842652, -0.0011983871,0.01739049, 0.019811034, -0.024811745,Lying
-2.9336007, -1.0250254, 9.375977,-0.0045272405, -0.008255556, 0.0019973118,0.043161392, 0.019845366, -0.008150101,Lying
-2.981457, -0.99631155, 9.373584,-0.0013315412, 0.0034620073, 0.005193011,0.023914099, 0.028391361, 0.0062351227,Lying
-2.9503503, -1.0202397, 9.378369,-0.0023967742, 0.008788172, 0.006258244,-0.021508694, 0.055307567, 0.0042533875,Lying
-2.9455647, -1.0393823, 9.340084,-0.0055924733, 0.0066577066, 0.009453943,0.010682106, 0.03077221, 0.009226799,Lying
-2.9838498, -1.0417751, 9.359226,-0.008788172, -7.9892477E-4, 0.00838871,0.014977455, 0.012315512, -0.028001785,Lying
-2.9623144, -1.0800604, 9.359226,-0.008788172, 0.0013315412, 0.006258244,-0.02221489, 0.010802507, -0.0082941055,Lying
-2.9503503, -1.0944172, 9.385548,-0.0077229394, 0.0034620073, 0.004127778,6.0796738E-5, -0.02546382, -0.007669449,Lying
-2.9575288, -1.1063814, 9.4070835,-0.0077229394, -0.0029293909, 0.0019973118,0.011149645, -0.03724599, 0.018045425,Lying
-2.9742785, -1.1087742, 9.390333,-0.0066577066, -0.010386022, -1.3315413E-4,0.0019721985, -0.04638827, 0.03783226,Lying
-2.9838498, -1.1183455, 9.414262,-0.0023967742, -0.007190323, -0.0022636203,-0.015638828, -0.046601653, 0.020001411,Lying
-2.9886355, -1.1207383, 9.385548,0.0029293909, -0.0018641578, -0.0033288533,-0.024784803, -0.05464554, 0.042325974,Lying
-2.9742785, -1.0992029, 9.383155,0.005059857, -0.0029293909, -0.0033288533,-0.029185295, -0.055855036, 0.012858391,Lying
-2.9623144, -1.1015958, 9.399904,0.0061250897, -0.007190323, -0.0033288533,-0.015673637, -0.034057498, 0.009583473,Lying
-2.955136, -1.0728818, 9.392726,0.007190323, -0.008255556, -0.0033288533,-0.005115032, -0.0363307, 0.02486229,Lying
-2.9336007, -1.0609177, 9.373584,0.010386022, -0.0029293909, -0.0022636203,0.0014283657, -0.009057522, 0.016710281,Lying
-2.9312077, -1.0513464, 9.36162,0.013581721, 2.6630826E-4, -0.0022636203,0.022218227, 5.264282E-4, -0.0026330948,Lying
-2.9383862, -1.0489537, 9.3664055,0.013581721, -0.0029293909, -0.0022636203,0.023219824, 0.0074756145, -0.014562607,Lying
-2.9431717, -1.0393823, 9.364013,0.009320789, -0.009320789, -0.0022636203,0.013786554, 0.008007884, -0.0101594925,Lying
-2.9359934, -1.015454, 9.371191,0.007190323, -0.010386022, -0.0033288533,0.006770849, 0.015907526, -0.01286602,Lying
-2.926422, -1.0202397, 9.378369,0.008255556, -0.005059857, -0.0011983871,0.012559891, 0.03712797, -0.0059423447,Lying
-2.914458, -1.0322039, 9.383155,0.009320789, 0.0013315412, 9.320789E-4,0.021654844, 0.029543757, 0.0010900497,Lying
-2.928815, -1.0345967, 9.385548,0.007190323, 0.0013315412, 0.0019973118,0.032783747, 0.01558435, 0.0056142807,Lying
-2.9455647, -1.0202397, 9.375977,0.0061250897, -0.0029293909, -1.3315413E-4,0.017266512, 0.011664033, 0.007454872,Lying
-2.952743, -1.029811, 9.3664055,0.0061250897, -7.9892477E-4, -0.0011983871,3.1018257E-4, 0.024143577, -0.0022258759,Lying
-2.9431717, -1.0250254, 9.373584,0.007190323, 0.0023967742, -0.0022636203,-0.006269455, 0.012920022, -0.011424065,Lying
-2.9838498, -1.0609177, 9.371191,0.0061250897, 0.0023967742, -0.0011983871,0.0036008358, 0.016094685, -0.004084587,Lying
-2.9599216, -1.070489, 9.378369,0.007190323, -7.9892477E-4, -0.0011983871,-0.03605652, -0.020391822, -0.006454468,Lying
-2.9575288, -1.0680962, 9.390333,0.007190323, -0.0029293909, -1.3315413E-4,-0.012227774, -0.030247688, 4.005432E-4,Lying
-2.9575288, -1.070489, 9.428618,0.008255556, -0.0029293909, 9.320789E-4,-0.010014057, -0.028449297, 0.01163578,Lying
-2.914458, -1.084846, 9.416655,0.009320789, 0.0013315412, 9.320789E-4,-0.009429216, -0.031532764, 0.048187256,Lying
-2.9359934, -1.084846, 9.402297,0.013581721, 0.0066577066, 0.004127778,0.03383112, -0.047031403, 0.035107613,Lying
-2.952743, -1.0800604, 9.426226,0.01677742, 0.008788172, 0.006258244,0.013504744, -0.04872024, 0.02020073,Lying
-2.928815, -1.0728818, 9.399904,0.021038352, 0.013049104, 0.007323477,-6.868839E-4, -0.046631575, 0.04300022,Lying
-2.9192436, -1.0920244, 9.435797,0.025299285, 0.01837527, 0.007323477,0.026007414, -0.043197393, 0.016644478,Lying
-2.955136, -1.0489537, 9.457631,0.02742975, 0.015179571, 0.00838871,0.037271738, -0.065651536, 0.05113983,Lying
-2.969493, -1.0010972, 9.399904,0.032755915, 0.015179571, 0.005193011,0.0041003227, -0.0279212, 0.07049084,Lying
-2.9742785, -1.0010972, 9.368798,0.042343013, 0.026897134, 0.004127778,-0.0050513744, 0.011527181, 0.013260841,Lying
-2.9240294, -1.0058829, 9.423833,0.04873441, 0.0290276, -0.0033288533,-0.004407406, 0.0026409626, -0.016583443,Lying
-2.9886355, -0.9723833, 9.411869,0.04127778, -0.0029293909, -0.0054593193,0.043735266, -0.009141207, 0.036275864,Lying
-2.981457, -0.94606227, 9.308977,0.03808208, -0.021038352, -0.009720251,-0.02419734, 0.017319083, 0.021578789,Lying
-3.024827, -0.85483587, 9.263514,0.049799643, 0.0023967742, -0.009720251,-0.016203403, 0.033863902, -0.07951355,Lying
-3.0391839, -0.8739785, 9.268299,0.057256274, 0.03967993, -0.013981183,-0.05052066, 0.11129022, -0.11968231,Lying
-3.0559337, -0.94366944, 9.297013,0.049799643, 0.048201796, -0.015046417,-0.054406404, 0.08101839, -0.10924244,Lying
-3.0583265, -0.8787641, 9.32812,0.028494984, 0.020505736, -0.01611165,-0.06544089, 0.006996274, -0.07716656,Lying
-3.0415766, -0.84047896, 9.308977,0.009320789, -0.005059857, -0.018242115,-0.066812515, 0.06866038, -0.04494953,Lying
-3.012863, -0.9125627, 9.342477,-2.6630826E-4, -0.0018641578, -0.015046417,-0.04898548, 0.10432577, -0.06207943,Lying
-2.9766715, -0.97477615, 9.375977,7.9892477E-4, 0.01837527, -0.013981183,-0.016545773, 0.032033324, -0.026560783,Lying
-2.9072795, -0.8979067, 9.395119,7.9892477E-4, 0.01837527, -0.009720251,0.021836042, -0.0288288, 0.007774353,Lying
-3.0391839, -0.7902297, 9.332906,-0.008788172, -0.005059857, 0.023301972,0.0877738, 0.04646921, 0.025907516,Lying
-2.8187451, -0.9197412, 9.340084,-0.0045272405, 0.014114338, 0.02223674,-0.039602757, 0.14866322, -0.034277916,Lying
-2.8474588, -0.9987044, 9.474381,0.0029293909, 0.0258319, 0.021171506,0.17973137, 0.016932547, -0.024766922,Lying
-3.0032916, -0.95802635, 9.404691,-0.020505736, -0.032755915, 0.025432438,0.1405642, -0.057843387, 0.10423088,Lying
-2.9718857, -0.9173484, 9.404691,-0.019440502, -0.04127778, 0.012649642,-0.02177596, -0.013801813, 0.03160572,Lying
-3.0415766, -0.94366944, 9.378369,-0.0013315412, 0.01837527, 0.0115844095,0.012535572, 0.02560389, 0.03161812,Lying
-3.065505, -0.96520483, 9.354441,0.011451255, 0.07057169, 9.320789E-4,-0.04244089, -0.0028160214, 0.008901596,Lying
-3.0535407, -0.9723833, 9.340084,0.008255556, 0.072702155, -0.0033288533,-0.051294804, -0.024843216, -0.010544777,Lying
-3.0798619, -1.0082756, 9.349655,-0.0045272405, 0.03967993, -0.0022636203,-0.030982971, -0.030025482, -0.02172947,Lying
-3.12054, -0.9699905, 9.371191,-0.020505736, 0.010918639, 0.0019973118,-0.053446293, -0.060221314, -0.01074791,Lying
-3.12054, -0.9098708, 9.320942,-0.013049104, 0.026897134, 0.0019973118,-0.086209774, -0.018954933, 0.012234688,Lying
-3.0152557, -0.95802635, 9.318549,0.014646954, 0.08548495, -0.0075897854,-0.0682621, 0.03739983, -0.032120705,Lying
-3.1348968, -1.0106685, 9.340084,0.01677742, 0.08655018, -1.3315413E-4,0.051291943, -0.013136625, -0.028630257,Lying
-3.1923244, -0.97477615, 9.383155,-0.013049104, -0.0018641578, -0.0075897854,-0.066672325, -0.060878813, -0.0067100525,Lying
-3.0176485, -0.962812, 9.3664055,-0.035419, -0.05512581, -0.009720251,-0.13001132, -0.01724863, 0.032622337,Lying
-3.0200412, -0.9699905, 9.325727,-0.023701435, -0.007190323, -0.004394086,0.041998625, -6.222725E-4, 0.01533699,Lying
-3.1085758, -0.9699905, 9.301799,0.008255556, 0.08441972, -0.004394086,0.053213358, -0.008760333, -0.019766808,Lying
-3.161218, -0.9125627, 9.323335,0.033821147, 0.1419423, -0.017176883,-0.009334326, -0.013469517, -0.03454876,Lying
-3.185146, -0.8117651, 9.426226,0.033821147, 0.13448566, -0.024633514,-0.03653884, 0.038007557, -0.00521183,Lying
-3.075076, -0.83090764, 9.261121,0.012516488, 0.09187635, -0.029959679,-0.042717934, 0.1335622, 0.0997839,Lying
-2.9647074, -1.1638091, 9.270692,-0.0023967742, 0.0055924733, -0.017176883,0.06590295, 0.11203802, -0.06294441,Lying
-3.2042887, -0.9098708, 9.584451,-0.037549466, -0.11158316, 0.016910573,0.1507206, -0.20791173, -0.057557106,Lying
-3.1779675, -0.89072824, 9.44806,-0.06311506, -0.1584534, -0.0033288533,-0.114068985, 0.055877984, 0.23951435,Lying
-2.8546374, -1.070489, 9.378369,-0.034353767, -0.025299285, -0.01611165,-0.08959675, 0.07959628, 0.098685265,Lying
-2.9359934, -1.0417751, 9.380762,0.01997312, 0.14300753, 0.013714875,0.25167465, -0.101089835, 0.036312103,Lying
-3.173182, -0.9556335, 9.48156,0.03808208, 0.18242116, 0.033954304,0.19756866, -0.07871348, 0.04755497,Lying
-3.144468, -1.0274183, 9.55813,0.037016846, 0.19413872, 0.020106273,-0.0034480095, -5.015731E-4, 0.15419102,Lying
-3.1061828, -1.044168, 9.534202,0.04127778, 0.25911793, 0.012649642,0.07062197, -0.07804054, 0.23814869,Lying
-3.1277182, -0.87158567, 9.177372,0.056191042, 0.4061201, 0.026497671,0.17770886, -0.10324019, 0.23117542,Lying
-3.362514, -0.7040881, 9.050254,0.11371362, 0.56483984, 0.07336792,0.25200486, 0.04218167, -0.08772278,Lying
-3.7432718, -0.7375876, 9.241979,0.16804051, 0.6457975, 0.12449911,0.13237834, 0.16515994, -0.1681261,Lying
-3.8907297, -0.7196414, 8.857332,0.16164911, 0.6074491, 0.13195574,-0.13174176, 0.09001446, 0.06116581,Lying
-3.9254255, -0.81655073, 9.015557,0.0870828, 0.41890287, 0.08721595,-0.055197954, 0.066414595, 0.08601189,Lying
-3.993621, -0.9532407, 9.068199,-0.022636201, -0.09933298, -0.019307349,-0.23591638, 0.093628585, -0.30351543,Lying
-3.9960139, -0.94725865, 9.240782,-0.023701435, -0.12809427, -0.024100898,-0.2842977, 0.0025156736, -0.14906025,Lying
-3.7109687, -0.8285148, 9.141181,-0.034353767, -0.07536524, -0.020905199,-0.35429358, -0.12212175, -0.0978241,Lying
-3.5626137, -0.7890333, 9.022736,-0.0066577066, 0.07643047, -0.013448567,-0.33168817, -0.11016792, 0.07756901,Lying
-3.716951, -0.738784, 9.015557,0.0039946237, 0.15525772, 0.07549839,-0.016827106, 0.0021449327, -0.010313034,Lying
-3.702594, -0.7148558, 8.451449,0.005059857, 0.10625699, 0.16497797,0.1483767, 0.027766764, -0.11718464,Lying
-3.6236308, -0.8572287, 8.589037,0.05778889, -0.23088926, 0.25445753,-0.042236567, 0.047517, -0.1373291,Lying
-3.7851462, -0.16510476, 11.033605,0.17017098, -1.2194256, 0.32955647,-0.23558164, 0.0168764, -0.7633114,Lying
-3.1887352, -0.9532407, 11.220544,-0.23515019, -1.8874598, 0.17349982,-0.4819677, -0.09090531, -0.7197685,Lying
-1.2364911, -1.5017953, 7.517052,-0.7677667, -2.0307336, -0.18015754,-1.0163279, 0.74966145, 1.6112509,Lying
-1.4557334, -1.1769696, 9.2539425,-0.5792205, -1.8320676, -0.054460037,-0.75834274, 0.071926594, 1.706912,Lying
-2.297708, -1.0058829, 10.272088,-0.4263595, -1.1315438, -0.0033288533,0.9768543, -0.39454484, -2.0290828,Lying
-2.1275184, -1.1638091, 9.271889,-0.07909355, -0.14780109, -0.121569715,0.72355866, -0.04962361, -0.2955408,Lying
-2.3048863, -1.0692927, 9.475577,0.2969337, 0.7390054, -0.050731722,0.018835306, 0.06787598, 0.74500847,Lying
-2.9455647, -0.8679964, 9.861121,0.4002613, 1.0383359, -0.02356828,0.38080287, -0.16319418, -0.21288109,Lying
-2.8701909, -0.9281161, 9.503095,0.27456382, 0.77628857, -0.05925359,0.34555984, -0.11621231, 0.024814606,Lying
-2.5468607, -1.0202397, 9.288638,0.06151721, 0.18827994, -0.03155753,-0.25951242, 0.07485455, 0.4171276,Lying
-2.5097718, -1.1027921, 9.5760765,-0.13182259, -0.35605413, -0.02197043,-0.2494607, 0.040440977, 0.04267788,Lying
-2.4616163, -1.1350952, 9.423833,-0.20372581, -0.50199103, -0.025698747,-0.020055294, -0.012441158, -0.19222164,Lying
-2.4041886, -1.1327025, 9.356833,-0.13022473, -0.31451005, -0.018242115,-0.041823387, -0.06951916, 0.081977844,Lying
-2.6282165, -1.0633105, 9.536594,-0.0029293909, 0.013049104, -0.004394086,0.008387089, -0.1005919, -0.06909561,Lying
-2.652145, -1.0405787, 9.564112,0.060451973, 0.21011722, -0.0038614697,0.10445356, -0.10873437, -0.12647629,Lying
-2.5337, -1.0992029, 9.505488,0.032755915, 0.145138, 0.004127778,-0.09190273, -0.04535508, 0.05943203,Lying
-2.4352953, -1.1171491, 9.512667,-0.037549466, -0.04394086, 0.008921326,-0.12327337, -0.015948415, 0.085113525,Lying
-2.4077778, -1.1410773, 9.482756,-0.07856093, -0.1515294, 0.008921326,-0.032637596, -0.060115695, 0.020413399,Lying
-2.4197419, -1.0668998, 9.534202,-0.051397495, -0.095072046, 0.006258244,0.047710896, -0.06844902, 0.023872375,Lying
-2.4643083, -1.015454, 9.54138,-0.0018641578, 0.023701435, 0.007323477,0.07943201, -0.09195125, -0.0048503876,Lying
-2.4508486, -0.9819546, 9.516255,0.01677742, 0.066843376, 0.0035951615,0.079600334, -0.020894408, 0.049337387,Lying
-2.4221346, -1.0214362, 9.473185,-0.0045272405, 0.010386022, 3.9946238E-4,0.03703952, 0.031276703, 0.056839943,Lying
-2.4496522, -1.0226326, 9.460024,-0.026897134, -0.048201796, -0.0033288533,0.040933132, 0.069649994, 0.029723167,Lying
-2.4894328, -1.0226326, 9.473185,-0.023701435, -0.03062545, -0.004926703,0.063533306, 0.0346179, -0.014331818,Lying
-2.4966114, -1.058525, 9.469596,-0.0045272405, 0.026364516, -0.0038614697,0.040616274, 0.03428209, -0.0259943,Lying
-2.4846473, -1.0860424, 9.475577,-0.0023967742, 0.038614698, 0.004127778,0.008337975, 0.03435433, -0.010819435,Lying
-2.5372894, -1.1458629, 9.429815,-0.015179571, 0.0029293909, 0.010519176,0.0019028187, 7.3599815E-4, -0.013885498,Lying
-2.5959134, -1.1279168, 9.51147,-0.01677742, -0.0077229394, 0.016910573,0.012722492, -0.024389267, -0.007888794,Lying
-2.6688945, -1.1051849, 9.504292,2.6630826E-4, 0.032755915, 0.023834588,-0.033205032, -0.08507109, -0.051537514,Lying
-2.6341987, -1.0896316, 9.499506,0.010386022, 0.062049825, 0.02969337,-0.077046156, -0.06815946, 0.031663895,Lying
-2.5301108, -1.1159526, 9.512667,0.0061250897, 0.045006096, 0.035019536,-0.13629341, -0.046673417, 0.025696754,Lying
-2.4077778, -1.157827, 9.468399,-0.007190323, 0.0061250897, 0.037150003,-0.09632659, -0.030560493, 0.020648003,Lying
-2.4906292, -1.1303096, 9.5557375,-0.009320789, -0.020505736, 0.03768262,0.004668236, -0.0551517, 0.031891823,Lying
-2.5097718, -1.0214362, 9.492328,0.0018641578, 0.011451255, 0.02969337,0.12526894, -0.09560549, -0.011496544,Lying
-2.5025933, -0.97477615, 9.567701,0.022103585, 0.065245524, 0.028628137,0.05355239, -0.071161866, 0.076114655,Lying
-2.6246274, -1.0345967, 9.560523,0.027962366, 0.07802832, 0.028628137,0.047430754, 0.030338049, 0.015337944,Lying
-2.7852457, -1.0728818, 9.380762,-2.6630826E-4, 0.0066577066, 0.013714875,0.04847169, 0.02822113, 0.015412331,Lying
-2.900101, -1.1530414, 9.622736,0.0061250897, 0.013049104, 0.012649642,0.04945588, 0.02556014, 0.015410423,Lying
-2.845066, -1.1386845, 9.640682,0.026364516, 0.06737599, 0.021171506,0.06036973, 0.018921852, 0.017660141,Lying
-2.845066, -1.1685947, 9.631111,0.04873441, 0.13981183, 0.028628137,0.091052055, 0.053259194, 0.095923424,Lying
-2.845066, -1.1530414, 9.560523,0.05512581, 0.15579033, 0.030758604,-0.0014212132, -0.017864227, 0.092437744,Lying
-2.8139594, -1.1171491, 9.559326,0.050864875, 0.11850718, 0.028628137,-0.13460064, -0.06493032, -0.079348564,Lying
-2.928815, -1.064507, 9.671789,0.04447348, 0.07589785, 0.040345702,-0.11614299, -0.07249558, -0.07380962,Lying
-2.821138, -0.9879367, 9.564112,0.08175664, 0.066843376, 0.07283531,-0.19964623, -0.18038464, 0.1658678,Lying
-2.652145, -0.7304091, 9.392726,0.109452695, 0.06950645, 0.07816147,-0.12580633, -0.18418992, 0.17928505,Lying
-2.8139594, -0.51116675, 9.582058,0.12915951, 0.08548495, 0.088281184,-0.10465169, -0.23482615, 0.16617203,Lying
-3.0296125, -0.49920264, 9.554541,0.15419248, 0.080158785, 0.11278155,-0.08477235, -0.2456029, 0.09382439,Lying
-3.075076, -0.5829514, 9.279067,0.17176883, 0.08335448, 0.14101022,-0.03445506, -0.24104816, 0.09102821,Lying
-3.065505, -0.5721837, 9.293424,0.17230144, 0.0902785, 0.20545682,-0.12486863, -0.22400022, 0.19881535,Lying
-3.1133614, -0.602094, 9.493524,0.19360611, 0.088148035, 0.27522957,0.003643036, -0.19206637, 0.08970165,Lying
-3.0343983, -0.70648086, 9.567701,0.20745413, 0.13288783, 0.27842528,0.19477773, 0.010864854, -0.07471466,Lying
-2.731108, -0.72083783, 9.892228,0.21650861, 0.17975807, 0.2629794,0.06791639, 0.16906184, 0.11757088,Lying
-3.158825, -0.44536412, 9.602397,0.2255631, 0.19467133, 0.2688382,-0.10436177, 0.11952764, 0.09497738,Lying
-4.582854, 0.07208378, 8.618947,0.23834589, 0.16857313, 0.28481668,-0.11136842, -0.024334073, -0.16771889,Lying
-2.7649066, 0.0062811594, 9.343674,0.23461758, 0.13714875, 0.28481668,-0.07088876, -0.07140523, -0.14282513,Lying
-1.7347964, -0.61405814, 10.913963,0.23195449, 0.09720252, 0.28481668,-0.094843626, -0.15589386, 0.058768272,Lying
-3.7528431, -0.64905316, 9.549755,0.25325915, 0.066843376, 0.26990342,-0.0011408329, -0.31242713, 0.13044167,Lying
-4.0331025, -0.20219351, 9.154342,0.26977026, 0.06950645, 0.21504392,0.3057866, -0.3767794, 0.44202042,Lying
-2.3659034, 0.075673014, 9.920941,0.34060827, 0.027962366, 0.12183603,-0.11199689, -0.16620383, 0.14671421,Lying
-2.7888348, 0.32841492, 9.633504,0.44020754, 0.20159535, 0.20439158,-1.4477632, 0.24843253, -0.7989273,Lying
-3.3601213, 0.36789647, 9.516255,0.44340324, 0.49506706, 0.36204606,0.46065807, 0.07733194, -0.04413414,Lying
-2.2378874, 0.6948159, 9.94128,0.3741631, 0.22396524, 0.2145113,1.5245382, -0.6227582, 1.5324945,Lying
-2.1514466, 0.59312093, 9.786943,0.32835808, -0.15579033, 0.06644391,-0.5198312, -0.71870667, 0.15780544,Lying
-3.5168512, 0.381057, 8.736495,0.3581846, -0.062049825, 0.20545682,-0.8079753, -0.34946477, -0.23942184,Lying
-4.0151563, 0.625424, 8.814261,0.46683836, 0.021038352, 0.2272941,0.8579712, -0.17150837, 0.5276346,Lying
-3.9864426, 1.0351949, 8.997611,0.51051295, 0.08495233, 0.13887976,0.4478116, -0.02185294, 0.24734211,Lying
-4.1781673, 1.4195421, 8.626125,0.5467309, 0.254857, 0.20439158,-0.07775092, -0.09583226, 0.14993286,Lying
-3.9888353, 1.3609179, 8.367701,0.60212296, 0.34913012, 0.21238084,1.1010592, 0.10593498, 0.6011133,Lying
-3.7241294, 1.2194422, 8.883654,0.6165036, 0.2804226, 0.04087832,1.2320671, -0.1111244, 0.4706545,Lying
-3.9481573, 1.625624, 9.265906,0.63354737, 0.23781328, -0.070438534,-0.08829379, -0.4322339, -0.5515671,Lying
-3.6667016, 2.012364, 9.117252,0.6809502, 0.34699965, 0.040345702,-0.52129936, -0.31342483, -0.436121,Lying
-3.449852, 2.1442683, 8.2812605,0.7555165, 0.41464195, 0.12876004,-0.4177239, -0.049743176, -0.20796776,Lying
-3.6188452, 2.4867408, 7.6274214,0.79493016, 0.46257743, 0.18308693,-0.5273912, 0.17729867, -0.5256119,Lying
-3.5422747, 2.7622147, 7.5529447,0.7485925, 0.4380771, 0.27043605,-0.26517296, -0.03532374, -0.7294388,Lying
-3.5144582, 3.0903304, 8.723334,0.654852, 0.19626918, 0.28002313,0.026390553, -0.31272924, -0.17899513,Lying
-4.322933, 2.7131617, 8.888439,0.54300255, -0.08548495, 0.23262025,-0.2190001, -0.020519137, 0.21270943,Lying
-3.6690943, 1.7632111, 8.373683,0.45671865, -0.17496452, 0.25179446,0.022742748, 0.26520813, 0.06632519,Lying
-3.5973098, 1.3657036, 8.92822,0.4130441, -0.064712904, 0.19586973,0.21999669, 0.30768144, -0.75602436,Lying
-3.4139597, 1.5777674, 9.159127,0.34327134, 0.14354014, 0.13994499,0.07109189, 0.57622933, -1.3800154,Lying
-3.3565319, 1.8245273, 9.286245,0.19733442, 0.2703029, 0.1308905,0.18965006, 0.80317724, -1.4198923,Lying
-3.879962, 2.1454647, 9.241979,-0.023701435, 0.29799893, -0.02516613,0.269346, 1.1317157, -0.22743988,Lying
-4.1662035, 2.184946, 9.592826,-0.19520395, 0.06897384, -0.15832026,-0.5183475, 0.7966448, -0.06412315,Lying
-3.6930227, 1.6878372, 9.265906,-0.36031508, -0.18881255, -0.062449288,0.10400152, -0.08429301, -0.60362625,Lying
-3.44387, 1.4219348, 9.015557,-0.40558746, -0.2676398, -0.07097115,0.13035011, -0.40287757, -0.08285904,Lying
-3.649952, 1.1297114, 9.165109,-0.34753227, -0.116909325, -0.05392742,0.29325485, -0.124740124, 0.12727928,Lying
-3.777968, 0.96909314, 9.135199,-0.27296597, 0.11477886, -0.07416685,0.3717246, 0.1750753, 0.25236797,Lying
-3.6786656, 0.9272188, 8.799905,-0.25379178, 0.22343263, -0.10346076,-0.10814619, 0.54605687, 0.21534634,Lying
-3.502494, 1.0806586, 8.718549,-0.32462975, 0.15738818, -0.033687994,-0.36357737, 0.6425283, 0.56514835,Lying
-3.4953158, 1.2026925, 8.76162,-0.40079394, -0.041810397, 0.0057256273,0.10140705, 0.21524596, 0.22202873,Lying
-3.7013974, 1.2433704, 9.168698,-0.4258269, -0.11371362, -0.05126434,0.33004594, 0.0289042, -0.04854107,Lying
-3.973282, 1.2278172, 9.489935,-0.3970656, -0.065778136, -0.06511237,0.113447905, -0.18666339, 0.08527374,Lying
-4.0307097, 0.98614204, 9.409476,-0.33794516, 0.013049104, -0.04806864,-0.0111095905, -0.2817576, 0.047513008,Lying
-3.7588253, 0.7513463, 9.501899,-0.32835808, 0.08228925, -0.024100898,0.103069305, -0.26188123, -0.2881813,Lying
-3.871587, 0.81834537, 9.340084,-0.38588065, 0.08974588, -0.029427063,0.29437566, -0.037154675, -0.3698387,Lying
-3.952943, 0.66131634, 9.602397,-0.45085987, 0.045538712, -0.08641703,0.30997038, 0.17131555, -0.33118725,Lying
-3.7875392, 0.18604197, 9.989436,-0.48920828, 0.0039946237, -0.14713532,0.1069684, 0.30910736, 0.066547394,Lying
-3.8237305, 0.025423741, 9.2742815,-0.44872943, -0.023701435, -0.16950521,-0.16538525, 0.38478982, 0.37602425,Lying
-4.0677986, 0.03379862, 9.083753,-0.38534805, 0.047669176, -0.09121058,-0.2118125, 0.21773237, 0.29178238,Lying
-4.240381, -0.04755735, 9.318549,-0.4098484, 0.16271435, -0.07363423,0.08987999, 0.061781406, 0.3884573,Lying
-4.034299, -0.072681986, 9.429815,-0.4322183, 0.08175664, -0.11571094,-0.0065493584, 0.21408749, 0.22632885,Lying
-3.7600217, -0.0738784, 9.42503,-0.43701184, -2.6630826E-4, -0.108786926,-0.086413145, 0.1431436, 0.48136902,Lying
-3.9194436, -0.19860429, 9.548559,-0.36990216, -0.11744194, -0.12796111,0.058680296, -0.25491574, 0.8515444,Lying
-4.045067, -0.36490545, 9.674182,-0.24313943, -0.10412653, -0.15405932,0.0052313805, -0.35824892, 0.12601757,Lying
-3.9684963, -0.17108682, 9.674182,-0.123300724, 0.04394086, -0.14607008,-0.2290008, -0.31506595, -0.06169319,Lying
-3.7660038, 0.10079765, 9.473185,-0.0838871, 0.06897384, -0.12583065,-0.3862927, -0.3700292, 0.17683887,Lying
-3.6284165, 0.0948156, 9.37478,-0.101463445, -0.049799643, -0.106656455,-0.18765593, -0.36699235, 0.28241634,Lying
-3.7181473, 0.06610172, 9.071789,-0.11531147, -0.11264839, -0.13648298,0.06674576, -0.3354321, 0.2671423,Lying
-3.7971103, 0.20757736, 9.213264,-0.0902785, -0.066843376, -0.14180915,-0.10340023, -0.43089044, 0.38311386,Lying
-4.074977, 0.43489552, 9.112467,-0.030092834, -2.6630826E-4, -0.09227581,-0.2276628, -0.5820786, 0.50617695,Lying
-4.107579, 0.41336012, 8.737691,0.024766669, 0.056191042, -0.077362545,-0.1398449, -0.3847601, 0.5079546,Lying
-4.147061, 0.4962116, 9.010772,0.054593194, 0.087615415, -0.08481918,0.07832599, -0.115731046, 0.31200695,Lying
-3.9828532, 0.58713883, 8.994022,0.05938674, 0.09081112, -0.08908011,0.23164773, -0.12504023, 0.2198286,Lying
-3.8871403, 0.54646087, 8.802298,0.06897384, 0.07696309, -0.07469947,0.1552229, -0.15972194, -0.07665539,Lying
-4.083651, 0.43489552, 8.929416,0.06897384, 0.12649642, -0.04540556,0.09864092, -0.02719532, 0.07428646,Lying
-4.4321055, 0.3595216, 9.19173,0.08441972, 0.14886631, -0.02197043,-0.15159631, 0.18594572, -0.014390945,Lying
-4.319344, 0.401396, 9.136395,0.072169535, 0.17869283, 0.00838871,-0.15114832, 0.15002543, -0.37319088,Lying
-3.932604, 0.40378883, 9.026325,0.03062545, 0.11850718, -0.009720251,-0.16855478, 0.22680297, -0.090247154,Lying
-3.777968, 0.2745764, 9.041879,-0.0029293909, 0.007190323, -0.042742476,-0.0029416084, 0.32009622, -0.10593796,Lying
-3.822534, 0.14985052, 9.178569,-0.020505736, -0.008255556, -0.08694965,0.091382265, 0.28840885, -0.29683876,Lying
-3.8644085, 0.17647067, 9.207282,-0.023168819, 0.01837527, -0.106656455,-0.097859144, 0.18320575, -0.16293812,Lying
-3.9457645, 0.16301104, 9.165109,-0.034353767, 0.028494984, -0.09600413,-0.42614603, 0.11739367, 0.09805584,Lying
-4.017549, 0.0948156, 9.228818,-0.033821147, -0.010918639, -0.035285845,-0.3048401, 0.1625451, 0.04053974,Lying
-4.061816, -0.010468599, 9.307781,-0.03648423, -0.01997312, -0.025698747,0.07595062, 0.16771302, -0.069018364,Lying
-4.0091743, -0.097806625, 9.334102,-0.058854125, -0.034353767, -0.057655737,0.21707678, 0.05165887, -0.05454254,Lying
-3.9720855, -0.02961118, 9.295816,-0.07589785, -0.06418029, -0.085351795,0.15624785, -0.050888464, 0.074092865,Lying
-3.9972103, 0.064905316, 9.185747,-0.07057169, -0.07003907, -0.10399337,0.09875107, -0.0036321133, 0.09385681,Lying
-3.9673, 0.040977087, 9.219247,-0.054593194, -0.040212546, -0.11145,0.010093451, 0.0016613901, 0.046988487,Lying
-3.9816568, 0.03619144, 9.225228,-0.049799643, -0.0258319, -0.108786926,-0.06388283, -0.047565907, 0.10469532,Lying
-3.8871403, 0.13070793, 9.196515,-0.05193011, -0.035951614, -0.08428656,-0.11061978, -0.1325271, 0.17478561,Lying
-3.7995033, 0.19680966, 9.18814,-0.04287563, -0.0322233, -0.054992653,-0.0614717, -0.20104718, 0.1919136,Lying
-3.8380876, 0.23030917, 9.168698,-0.021038352, -0.0039946237, -0.04540556,-0.024144888, -0.12128185, 0.14812374,Lying
-3.9254255, 0.14506488, 9.118449,-0.0039946237, 0.015712187, -0.044340324,-0.044849634, -0.021745034, 0.03783989,Lying
-3.9577286, 0.04336991, 8.965308,0.0018641578, 0.0039946237, -0.044340324,-0.013648033, -0.041168064, 0.06929779,Lying
-3.9661036, 0.082851484, 9.14477,0.012516488, -0.026897134, -0.05605789,-0.03168893, -0.04239157, 0.07077122,Lying
-4.0103707, 0.13549358, 9.275477,0.034353767, -0.020505736, -0.069905914,0.057363033, 0.049755856, 0.03913498,Lying
-3.888337, 0.117547415, 9.19173,0.050864875, -0.009320789, -0.08428656,0.13847375, 0.10923853, 0.02910328,Lying
-3.8847475, 0.07328019, 9.116056,0.052462727, -0.009320789, -0.09600413,0.095339775, 0.13606456, 0.0089969635,Lying
-3.9314077, 0.020638095, 9.18455,0.03808208, -0.023168819, -0.09547151,0.003768921, 0.0498282, -0.041600227,Lying
-3.9768713, 0.042173497, 9.224032,0.015179571, -0.0258319, -0.0821561,-0.031980276, -0.04675334, -0.19031906,Lying
-3.9481573, 0.055334024, 9.136395,-0.009320789, -0.023168819, -0.0693733,-0.042945623, -1.841858E-4, -0.012049675,Lying
-3.926622, 0.048155557, 9.090932,-0.023168819, -0.033821147, -0.049133874,-0.09017873, 0.05846899, 0.11199474,Lying
-3.9445682, 0.057726845, 9.173783,-0.023701435, -0.025299285, -0.033155378,0.026554823, 0.045757033, 0.02529335,Lying
-3.9170506, 0.030209387, 9.169894,-0.0290276, -0.011451255, -0.03422061,0.027187586, 0.008992597, -0.049384117,Lying
-3.8895333, 0.018245272, 9.118449,-0.032755915, -0.010386022, -0.02356828,-0.020662785, -0.03478486, 0.017445564,Lying
-3.885944, 0.018245272, 9.120842,-0.029560216, -0.016244804, -0.013981183,-0.066800594, -0.00657887, 0.0538311,Lying
-3.8967116, 0.06610172, 9.18455,-0.025299285, -0.009320789, -0.010252868,-0.038409233, 0.011553116, -0.03320217,Lying
-3.8548372, 0.03260221, 9.219247,-0.03062545, -0.0055924733, -0.013981183,-0.017258167, 0.010605302, -0.076535225,Lying
-3.8344984, -0.040378883, 9.19173,-0.045538712, -0.025299285, -0.018242115,-0.038457394, 0.028814461, 0.0039949417,Lying
-3.8368912, 0.0014955142, 9.255139,-0.048201796, -0.047669176, -0.013448567,-0.01886177, 0.010632027, -0.0031738281,Lying
-3.8066816, -0.017647067, 9.252746,-0.045538712, -0.03808208, -0.01291595,0.0017476082, 0.0076059867, -0.05569172,Lying
-3.839284, -0.06430711, 9.276674,-0.048201796, -0.023168819, -0.01611165,0.0011138916, 0.016959973, -0.05324173,Lying
-3.7719858, -0.106480606, 9.249157,-0.06098459, -0.035419, -0.017176883,-0.015533447, 0.07462317, 0.0072841644,Lying
-3.7552361, -0.111266255, 9.271889,-0.066310756, -0.04713656, -0.0145138,0.017257452, 0.052381754, 0.03715515,Lying
-3.7827535, -0.1160519, 9.28146,-0.065245524, -0.03328853, -0.011318101,0.030537605, -0.00775763, 0.006866455,Lying
-3.769593, -0.13519448, 9.246764,-0.06364767, -0.029560216, -0.011318101,0.022028923, 0.044969365, 0.06587601,Lying
-3.8153558, -0.14117654, 9.162716,-0.06098459, -0.03648423, -0.011318101,0.04384446, 0.03643965, 0.05874157,Lying
-3.839284, -0.148355, 9.246764,-0.052462727, -0.03062545, -0.010785485,0.005748272, 3.528595E-5, 0.07775593,Lying
-3.8273199, -0.124426775, 9.201301,-0.04394086, -0.026364516, -0.010252868,0.06576061, -0.032048374, 0.04666233,Lying
-3.798307, -0.10289137, 9.172287,-0.04074516, -0.02157097, -0.0118507175,0.0759778, -0.027611673, 0.06558895,Lying
-3.798307, -0.090628155, 9.210872,-0.041810397, -0.01677742, -0.010785485,0.043853283, -0.023212545, 0.071510315,Lying
-3.8201413, -0.06909275, 9.203693,-0.039147314, -0.01677742, -0.010252868,0.052157402, -0.03334163, 0.03439617,Lying
-3.8129628, -0.07148558, 9.169894,-0.02157097, 0.010918639, -0.004394086,0.054698467, -0.022992164, 0.03513336,Lying
-3.8464625, -0.07627122, 9.215657,-0.017310036, 0.009853406, -0.004394086,0.054587364, -0.018872261, 0.0347147,Lying
-3.8536408, -0.11246266, 9.230014,-0.013049104, 0.0066577066, 9.320789E-4,0.053931713, -0.016024008, 0.03406906,Lying
-3.822534, -0.11485548, 9.208479,-0.010918639, 0.0023967742, 0.006258244,0.008565187, -0.019822486, -0.047916412,Lying
-3.8129628, -0.15792629, 9.230014,-0.011983871, 0.0023967742, 0.009453943,-0.014439583, -0.024696372, 0.03492832,Lying
-3.8608193, -0.14356937, 9.246764,-0.010918639, 0.008788172, 0.009453943,-8.2182884E-4, 5.092621E-4, -0.009570122,Lying
-3.8368912, -0.148355, 9.244371,-0.010918639, 0.008788172, 0.006258244,0.028543234, 0.022790521, -0.036375046,Lying
-3.7911284, -0.18903299, 9.198908,-0.017310036, 0.0013315412, 0.0030625449,0.027827024, 0.03641586, 0.002023697,Lying
-3.781557, -0.19860429, 9.2539425,-0.017310036, -0.010386022, -0.0022636203,0.0042278767, 0.0592404, -0.005706787,Lying
-3.757629, -0.16749759, 9.239586,-0.011983871, -0.0039946237, -0.0075897854,0.010310888, 0.05760017, -0.03819847,Lying
-3.7839499, -0.15553348, 9.241979,-0.009853406, -0.0039946237, -0.0118507175,-0.023186207, 0.05363719, 0.0068035126,Lying
-3.7648072, -0.12921242, 9.230014,-0.010918639, -0.018907886, -0.01611165,-0.032726765, 0.02020675, 0.019118309,Lying
-3.7337005, -0.148355, 9.249157,-0.008788172, -0.023168819, -0.018242115,-0.005645275, 0.02008316, -0.0040225983,Lying
-3.8201413, -0.11724831, 9.304192,-2.6630826E-4, -0.018907886, -0.02037258,4.377365E-4, -0.020744234, 0.015579224,Lying
-3.781557, -0.0738784, 9.230014,0.0061250897, -0.013581721, -0.021437814,-0.048331976, -0.005678177, 0.030267715,Lying
-3.7480576, -0.095413804, 9.189336,0.005059857, -0.011451255, -0.01611165,-0.025620937, -0.009839043, 0.02609539,Lying
-3.7839499, -0.12203395, 9.215657,-2.6630826E-4, -0.017842652, -0.0118507175,0.016064167, -0.047971174, -0.020065308,Lying
-3.7887356, -0.07627122, 9.150752,-0.0045272405, -0.017842652, -0.0075897854,0.02163744, -0.054291606, 0.032582283,Lying
-3.8321054, -0.061914288, 9.174979,-0.0066577066, -0.007190323, -0.0033288533,0.042796135, -0.020969734, 0.017097473,Lying
-3.822534, -0.11246266, 9.206086,-0.0066577066, 0.0013315412, -1.3315413E-4,0.016125679, -0.0075142384, 0.018957138,Lying
-3.7672002, -0.13399807, 9.167501,-0.0055924733, 0.0034620073, 0.005193011,0.034729958, 0.018813938, 0.00701046,Lying
-3.8006997, -0.15553348, 9.198908,-0.0066577066, 0.0077229394, 0.0030625449,0.065033436, 6.081164E-4, 0.025876045,Lying
-3.8488553, -0.148355, 9.186943,-0.0077229394, 0.0023967742, 0.004127778,-0.020070076, 0.03174779, 0.07846546,Lying
-3.8608193, -0.14356937, 9.206086,-2.6630826E-4, 0.009853406, 0.00838871,0.01939702, 0.07181096, 0.004776001,Lying
-3.8823547, -0.19621146, 9.225228,7.9892477E-4, 0.014114338, 0.0019973118,0.053646803, 0.04829189, -0.03373146,Lying
-3.8584266, -0.22971097, 9.222836,-0.0066577066, -7.9892477E-4, -0.0011983871,0.016975403, 0.022465423, -0.007177353,Lying
-3.8536408, -0.18185452, 9.225228,-0.0045272405, 0.0013315412, -1.3315413E-4,0.012006283, 0.06651753, -0.0693531,Lying
-3.8321054, -0.18185452, 9.208479,-0.0055924733, 0.019440502, 0.0019973118,-0.026663303, 0.0790308, -0.04246521,Lying
-3.824927, -0.20578274, 9.208479,-0.020505736, 0.008788172, 0.004127778,-0.014965057, 0.031065255, -0.010256767,Lying
-3.7935212, -0.24885355, 9.206086,-0.030092834, -0.007190323, 0.0019973118,0.03753352, 0.014318332, -0.047402382,Lying
-3.7480576, -0.2943172, 9.230014,-0.031158065, 0.0034620073, -0.0022636203,0.004458666, -0.0013728887, -0.015381813,Lying
-3.795914, -0.27756742, 9.232407,-0.027962366, 0.009853406, -0.004394086,-0.04029274, 0.01084207, -0.025650978,Lying
-3.8703907, -0.21296121, 9.2539425,-0.030092834, 0.0013315412, -0.008655018,-0.05032611, 0.021013692, -0.006084442,Lying
-3.8727834, -0.19381863, 9.263514,-0.031158065, -0.012516488, -0.008655018,-0.07171607, -0.024541944, 0.011834145,Lying
-3.839284, -0.22492532, 9.230014,-0.023701435, -0.012516488, -0.0054593193,-0.04838705, -0.051592007, 0.008293152,Lying
-3.7911284, -0.38554356, 9.038289,-0.011983871, 2.6630826E-4, -0.006524552,-0.042123795, -9.86293E-4, 0.010389328,Lying
-3.795914, -0.37836507, 9.222836,-0.015179571, 0.0013315412, -0.004394086,-0.019666195, 0.0020265281, -0.006017685,Lying
-3.7863426, -0.06669993, 9.431011,-0.0290276, -0.01677742, 9.320789E-4,-0.015007257, -0.016175196, -0.0069322586,Lying
-3.7432718, -0.1363909, 9.256335,-0.034353767, -0.01997312, 0.006258244,0.012111187, -0.05174698, -0.010341644,Lying
-3.6834514, -0.31345975, 9.2946205,-0.031158065, 2.6630826E-4, 0.010519176,0.05578637, -0.08931579, 0.013295174,Lying
-3.6667016, -0.2656033, 9.335299,-0.0290276, 0.0077229394, 0.012649642,0.009012938, -0.065954626, 0.015838623,Lying
-3.6667016, -0.2727818, 9.292228,-0.0322233, 0.0077229394, 0.016910573,-0.061654568, 0.0031901747, 0.03684044,Lying
-3.6810586, -0.3469593, 9.337691,-0.03967993, 0.0023967742, 0.023301972,-0.061402798, 0.026878566, 0.04521084,Lying
-3.7552361, -0.35174492, 9.297013,-0.045006096, -0.012516488, 0.032889068,-0.028997898, 0.0013889521, 0.010566711,Lying
-3.8321054, -0.29192436, 9.21805,-0.05033226, -0.017842652, 0.02969337,0.015275717, -0.14712676, -0.17611027,Lying
-3.8727834, -0.30867413, 9.227621,-0.07057169, -0.0018641578, 0.004127778,0.009822369, -0.12322003, 0.008255005,Lying
-3.8943188, -0.3182454, 9.18455,-0.065245524, -0.04873441, -0.0022636203,0.010195017, 0.19352323, 0.20623589,Lying
-3.851248, -0.25603202, 9.122038,-0.03648423, -0.03062545, 0.0030625449,0.046165466, 0.12610877, 0.028288841,Lying
-3.8440695, -0.22492532, 9.143574,-0.010918639, 0.009853406, -1.3315413E-4,0.10424137, -0.0475249, 0.0651598,Lying
-3.8321054, -0.26081768, 9.174979,-0.017310036, -0.014646954, -0.010785485,0.11434245, 0.004189998, 0.10138416,Lying
-3.7743785, -0.25124636, 9.198908,-0.020505736, -0.032755915, -0.02037258,0.104664326, 0.0021709502, 0.054073334,Lying
-3.7313077, -0.19860429, 9.201301,-0.0013315412, -0.013581721, -0.029959679,0.08473015, -0.06730205, 0.09529781,Lying
-3.7193437, -0.19860429, 9.227621,0.01677742, 0.0034620073, -0.031024912,0.010560036, -0.070417345, 0.052912712,Lying
-3.7193437, -0.2321038, 9.258728,0.025299285, 0.011983871, -0.025698747,-0.061930656, -0.012782335, -0.02454567,Lying
-3.7384863, -0.2536392, 9.261121,0.02423405, 0.013049104, -0.021437814,-0.09705591, -0.03128898, -0.013658524,Lying
-3.7504504, -0.30388847, 9.237193,0.014646954, 2.6630826E-4, -0.015046417,-0.114699125, -0.04100588, -0.054944992,Lying
-3.781557, -0.32303107, 9.263514,0.005059857, -0.005059857, -0.006524552,-0.070123434, 0.020146936, -0.11371136,Lying
-3.7839499, -0.35174492, 9.2539425,7.9892477E-4, 0.0023967742, 9.320789E-4,-0.06041932, 0.049371332, -0.08891487,Lying
-3.7839499, -0.392722, 9.25155,-0.0034620073, 0.0013315412, 0.005193011,-0.046571255, 0.013225526, -0.05573654,Lying
-3.8368912, -0.4022933, 9.2348,-0.008788172, -0.0061250897, 0.004127778,0.009495735, 0.023294806, -0.031121254,Lying
-3.8656049, -0.37597227, 9.2539425,-0.0077229394, -0.005059857, 0.0019973118,0.049977064, 0.07467449, -0.028094292,Lying
-3.8536408, -0.34217364, 9.25155,-0.0066577066, 0.0013315412, -0.0011983871,0.060111523, 0.073440105, -0.0015573502,Lying
-3.8153558, -0.31585258, 9.220443,-0.0066577066, -0.0029293909, -0.0022636203,0.057576418, 0.03990525, 0.028418541,Lying
-3.7791643, -0.31106696, 9.21805,-0.0055924733, -0.0029293909, -0.0011983871,0.03660679, 0.018801719, 0.029603958,Lying
-3.795914, -0.27517462, 9.220443,-0.0055924733, 0.0034620073, -1.3315413E-4,0.024410725, -0.029461414, 0.0057373047,Lying
-3.807878, -0.22013968, 9.220443,-0.0066577066, 0.0055924733, 9.320789E-4,-0.005523205, -0.04590088, 0.031453133,Lying
-3.7791643, -0.2009971, 9.174979,-0.008788172, 0.0055924733, 9.320789E-4,-0.006672859, -0.07068169, 0.021588326,Lying
-3.769593, -0.1698904, 9.165109,-0.0077229394, 0.0066577066, 0.0030625449,-0.0052695274, -0.10655475, 0.019070625,Lying
-3.7887356, -0.16510476, 9.18455,-0.0034620073, 0.010918639, 0.005193011,-0.0540967, -0.112030745, 0.003027916,Lying
-3.7672002, -0.18903299, 9.186943,0.005059857, 0.01837527, 0.009453943,-0.07680726, -0.08439359, 0.022745132,Lying
-3.7552361, -0.21535404, 9.210872,0.011451255, 0.01837527, 0.013714875,-0.059371233, -0.05216205, 0.020931244,Lying
-3.7552361, -0.21535404, 9.21805,0.013581721, 0.009853406, 0.016910573,-0.01852417, -0.028558284, -0.009235382,Lying
-3.7743785, -0.25603202, 9.19173,0.012516488, 0.0066577066, 0.016910573,0.018083572, -0.026395023, -0.010830879,Lying
-3.8584266, -0.25603202, 9.21805,0.012516488, 0.0077229394, 0.015845342,0.0027074814, 0.005877048, -0.007666588,Lying
-3.8871403, -0.28713873, 9.196515,0.012516488, 0.010918639, 0.013714875,-0.006976366, 0.055751354, -0.0066900253,Lying
-3.8703907, -0.3062813, 9.172287,0.009320789, 0.0023967742, 0.00838871,0.02150321, 0.07017404, -0.050340652,Lying
-3.8416767, -0.2727818, 9.162716,0.0061250897, -0.005059857, -1.3315413E-4,0.029155016, 0.09687257, -0.058325768,Lying
-3.795914, -0.25124636, 9.162716,0.005059857, -0.0039946237, -0.0054593193,0.008924484, 0.0977816, -0.038172722,Lying
-3.7552361, -0.25124636, 9.239586,0.0061250897, -0.008255556, -0.006524552,0.02798152, 0.07076231, -0.035214424,Lying
-3.7193437, -0.22731815, 9.237193,0.005059857, -0.011451255, -0.008655018,0.03657055, 0.04266864, -0.0117378235,Lying
-3.6714873, -0.20578274, 9.25155,0.005059857, -0.0061250897, -0.008655018,0.03422904, 0.040982723, -0.0048685074,Lying
-3.6834514, -0.22492532, 9.239586,7.9892477E-4, -0.0039946237, -0.006524552,0.013823986, 5.816519E-4, -0.030472755,Lying
-3.7217364, -0.2656033, 9.25155,-0.0045272405, -0.005059857, -0.006524552,-0.06860876, 0.001826793, -0.0043296814,Lying
-3.7552361, -0.31106696, 9.287442,-0.0077229394, -0.0039946237, -0.0033288533,-0.094831705, -0.02674213, -0.025278091,Lying
-3.7648072, -0.36610186, 9.201301,-0.008788172, -0.007190323, -0.0033288533,-0.07674456, -0.042593718, -0.048069954,Lying
-3.769593, -0.45972106, 9.131609,-0.008788172, -0.013581721, -0.0033288533,-0.048802376, -0.0069743395, -0.056667328,Lying
-3.8129628, -0.36370903, 9.34487,-0.0077229394, -0.012516488, -0.0022636203,-0.0053908825, 0.015616894, -0.055644035,Lying
-3.867998, -0.3469593, 9.306584,-0.009853406, -0.015712187, -0.0011983871,0.031392336, 0.016907662, 0.019227028,Lying
-3.8536408, -0.39511484, 9.215657,-0.010918639, -0.01997312, -1.3315413E-4,0.061570168, 0.041425496, 0.014886856,Lying
-3.7767715, -0.39750767, 9.213264,-0.008788172, -0.01677742, 9.320789E-4,0.102880955, 0.06236282, 0.027118683,Lying
-3.728915, -0.392722, 9.222836,-0.010918639, -0.011451255, -1.3315413E-4,0.08585787, 0.04368481, 0.013868332,Lying
-3.7217364, -0.35174492, 9.292228,-0.019440502, -0.008255556, -1.3315413E-4,0.044490814, 0.006284505, 0.024490356,Lying
-3.716951, -0.3397808, 9.299406,-0.023701435, 2.6630826E-4, 0.0030625449,0.010646582, -0.03398046, 0.05854988,Lying
-3.7073796, -0.3182454, 9.282657,-0.02157097, 0.009853406, 0.005193011,0.0027825832, -0.08269042, -0.025946617,Lying
-3.688237, -0.3182454, 9.289835,-0.034353767, 0.02157097, 0.0030625449,0.0018568039, -0.16443259, -0.09050274,Lying
-3.7193437, -0.3278167, 9.280264,-0.04607133, -0.009320789, 0.004127778,-0.041502476, -0.0585441, 0.118195534,Lying
-3.7624145, -0.2847459, 9.299406,-0.024766669, -0.01677742, 0.007323477,-0.096286535, -0.036560476, 0.076146126,Lying
-3.7600217, -0.22253251, 9.2348,0.0039946237, 0.01837527, 0.012649642,-0.07588601, -0.08326441, -0.013093948,Lying
-3.769593, -0.18664017, 9.194122,0.0029293909, 0.009853406, 0.015845342,0.0025622845, -0.08445829, -0.014284134,Lying
-3.798307, -0.20817557, 9.186943,-0.01837527, -0.03062545, 0.009453943,0.043465376, -0.07446581, -0.0066375732,Lying
-3.8321054, -0.21296121, 9.162716,-0.015179571, -0.029560216, 0.00838871,0.04381776, -0.030553728, 0.058706284,Lying
-3.8416767, -0.22253251, 9.117252,0.0029293909, 0.009853406, 0.0115844095,0.04878497, -0.019301921, 0.0643816,Lying
-3.8177485, -0.2440679, 9.122038,0.005059857, 0.015179571, 0.014780108,0.059173107, 2.3370981E-4, 0.0470829,Lying
-3.8321054, -0.2847459, 9.167501,-0.0023967742, -0.005059857, 0.013714875,0.07491374, -3.361702E-4, 0.05210972,Lying
-3.8464625, -0.2727818, 9.215657,0.0018641578, 0.0023967742, 0.013714875,0.04281211, -0.010897249, 0.041269302,Lying
-3.839284, -0.28953153, 9.21805,0.018907886, 0.0322233, 0.015845342,0.005458355, 0.02668795, 0.060611725,Lying
-3.824927, -0.33499518, 9.2539425,0.02742975, 0.038614698, 0.015845342,0.014466763, 0.08004668, -0.0013217926,Lying
-3.7719858, -0.30867413, 9.227621,0.01997312, 0.027962366, 0.0115844095,0.009692192, 0.107774585, -0.038751602,Lying
-3.757629, -0.30388847, 9.239586,0.012516488, 0.016244804, 0.007323477,-0.015529394, 0.08061597, -0.04331112,Lying
-3.740879, -0.28953153, 9.249157,0.012516488, 0.014114338, 9.320789E-4,-0.044951916, 0.07103169, -0.06407738,Lying
-3.7145581, -0.26799613, 9.213264,0.008255556, 0.008788172, -0.0022636203,-0.051190615, 0.058115244, -0.1053524,Lying
-3.6978083, -0.28953153, 9.227621,-0.0013315412, -0.005059857, -0.006524552,-0.027256966, 0.036042362, -0.097569466,Lying
-3.7193437, -0.2656033, 9.244371,-0.0066577066, -0.015712187, -0.010785485,-0.043061256, -0.0025793016, -0.051419258,Lying
-3.7552361, -0.22492532, 9.2348,-0.0045272405, -0.013581721, -0.010785485,-0.05796361, 0.0106550455, -0.0043497086,Lying
-3.7624145, -0.21774685, 9.215657,-0.0013315412, -0.009320789, -0.008655018,-0.050771713, -0.0050522685, -0.0025558472,Lying
-3.7432718, -0.2632105, 9.186943,-0.0034620073, -0.017842652, -0.0075897854,-0.038360357, -0.047727287, 0.030995369,Lying
-3.7552361, -0.29671, 9.210872,-0.0034620073, -0.022103585, -0.008655018,0.009930372, -0.019433767, 0.002916336,Lying
-3.740879, -0.29910284, 9.210872,7.9892477E-4, -0.014646954, -0.009720251,0.020863533, -0.0135958195, 0.013336182,Lying
-3.7456648, -0.28953153, 9.203693,7.9892477E-4, -0.011451255, -0.008655018,0.034314156, 0.0012328625, 0.021325111,Lying
-3.7672002, -0.3182454, 9.227621,-2.6630826E-4, -0.015712187, -0.009720251,0.05582285, 0.022777408, -0.015250206,Lying
-3.7911284, -0.2847459, 9.230014,7.9892477E-4, -0.009320789, -0.0118507175,0.0684638, 0.0018871129, -0.0015220642,Lying
-3.8177485, -0.2536392, 9.227621,0.0018641578, -0.0029293909, -0.015046417,0.044738054, 0.02573061, 0.014514923,Lying
-3.807878, -0.3278167, 9.225228,0.0029293909, -0.0029293909, -0.018242115,0.007891417, 0.065030426, 0.0045404434,Lying
-3.795914, -0.37597227, 9.21805,7.9892477E-4, -0.005059857, -0.017176883,-3.080368E-4, 0.07089993, -0.014505386,Lying
-3.8129628, -0.3807579, 9.198908,-0.0034620073, -0.011451255, -0.01611165,0.016122341, 0.02630055, -0.042612076,Lying
-3.807878, -0.37836507, 9.177372,-0.0077229394, -0.015712187, -0.01611165,0.0011548996, -0.004488498, -0.019118309,Lying
-3.795914, -0.38554356, 9.189336,-0.0066577066, -0.010386022, -0.013981183,0.013103008, -0.004486382, -0.019187927,Lying
-3.8006997, -0.36610186, 9.215657,-0.0055924733, -0.0029293909, -0.009720251,0.007460594, 0.0066025555, -0.02567482,Lying
-3.7648072, -0.35413775, 9.239586,-0.013049104, -0.0039946237, -0.006524552,-0.01437211, -0.01864785, -0.0018749237,Lying
-3.7528431, -0.35174492, 9.249157,-0.015179571, -7.9892477E-4, -1.3315413E-4,-0.037195444, 0.017065763, 5.302429E-4,Lying
-3.7384863, -0.32063824, 9.210872,-0.015179571, 0.010918639, 0.007323477,-0.059473276, 0.048742324, -9.365082E-4,Lying
-3.7241294, -0.31345975, 9.21805,-0.019440502, 0.010918639, 0.013714875,-0.04623556, -0.02223286, -0.0023298264,Lying
-3.7456648, -0.32303107, 9.244371,-0.024766669, 2.6630826E-4, 0.014780108,-0.03298831, -0.06451416, -0.009037018,Lying
-3.7265222, -0.32542387, 9.19173,-0.022636201, 0.0034620073, 0.013714875,-0.047413826, -0.06400269, -0.026880264,Lying
-3.6810586, -0.33020952, 9.18455,-0.019440502, 0.0034620073, 0.0115844095,-0.04052925, -0.05697128, -0.046461105,Lying
-3.6690943, -0.34456646, 9.268299,-0.0258319, -0.008255556, 0.007323477,-0.029010057, -0.05800736, -0.033769608,Lying
-3.6667016, -0.3711866, 9.332906,-0.0322233, -0.021038352, 0.004127778,-0.03634572, -0.032189637, -0.008478165,Lying
-3.6571302, -0.38554356, 9.335299,-0.027962366, -0.025299285, -1.3315413E-4,-0.0048439503, -0.014623851, 0.013327599,Lying
-3.6547375, -0.4022933, 9.323335,-0.020505736, -0.03062545, -0.004394086,0.0014851093, -0.007906735, 0.020088196,Lying
-3.6403806, -0.42622152, 9.292228,-0.0055924733, -0.029560216, -0.010785485,0.010072708, 0.024208307, -0.019703865,Lying
-3.6020954, -0.4334, 9.280264,0.0039946237, -0.037016846, -0.01611165,0.01701808, 0.030794531, -0.014765739,Lying
-3.6355948, -0.4214359, 9.270692,0.0029293909, -0.05938674, -0.02037258,-0.0149924755, 0.02144137, 0.0069446564,Lying
-3.6595232, -0.41904306, 9.263514,0.0018641578, -0.0711043, -0.025698747,-0.008642435, 0.019904315, -0.049283028,Lying
-3.6906297, -0.42382872, 9.2946205,-0.0023967742, -0.06790861, -0.028894445,0.023513317, 0.017069608, -0.059365273,Lying
-3.6834514, -0.4118646, 9.275477,-0.016244804, -0.066843376, -0.028894445,0.022351027, 0.007497877, 0.01906395,Lying
-3.647559, -0.41904306, 9.289835,-0.023701435, -0.05512581, -0.024633514,0.014050007, -0.0123263, 0.077243805,Lying
-3.6451662, -0.39750767, 9.299406,-0.020505736, -0.026364516, -0.018242115,0.018070221, -0.020921052, 0.07527733,Lying
-3.6355948, -0.37597227, 9.316155,-0.017310036, -0.011451255, -0.010785485,0.01768589, -0.032630026, 0.060507774,Lying
-3.6116667, -0.40707895, 9.273085,-0.017310036, -0.013581721, -0.008655018,0.028529882, -0.051043242, 0.027560234,Lying
-3.6164522, -0.37836507, 9.292228,-0.013049104, -0.015712187, -0.0054593193,0.06181431, -0.05360672, 0.014058113,Lying
-3.6403806, -0.36131623, 9.263514,-0.0034620073, -0.010386022, -1.3315413E-4,0.025497437, -0.039622128, 0.0036258698,Lying
-3.6547375, -0.32542387, 9.225228,0.0029293909, -0.0061250897, 0.0019973118,4.208088E-4, -0.0366413, -0.0038909912,Lying
-3.6523447, -0.3469593, 9.230014,-0.0023967742, -0.012516488, 0.004127778,-0.03187871, -0.03991589, 0.025485992,Lying
-3.6786656, -0.36131623, 9.225228,-0.0034620073, -0.013581721, 0.006258244,-0.026223421, -0.026832312, 0.005188942,Lying
-3.6906297, -0.33499518, 9.222836,7.9892477E-4, -0.0039946237, 0.007323477,0.008728981, -0.033535272, 0.018624306,Lying
-3.6930227, -0.3493521, 9.230014,7.9892477E-4, 2.6630826E-4, 0.007323477,0.010848999, -0.012227446, 0.027276993,Lying
-3.6834514, -0.3493521, 9.246764,-0.0034620073, -7.9892477E-4, 0.005193011,0.019641876, 0.00927043, 0.04254532,Lying
-3.6667016, -0.38554356, 9.244371,-0.0013315412, -0.0039946237, 0.007323477,0.041487217, -0.021416217, -8.2302094E-4,Lying
-3.6451662, -0.38554356, 9.261121,0.008255556, 0.0077229394, 0.009453943,0.036899567, 0.0049713254, 0.018202782,Lying
-3.6379876, -0.39032918, 9.265906,0.009320789, 0.011983871, 0.005193011,0.014659643, 0.019009978, -0.009428024,Lying
-3.6308093, -0.4142574, 9.244371,0.005059857, 0.0013315412, 0.0019973118,5.2142143E-4, 0.05207908, -0.046111107,Lying
-3.6403806, -0.39511484, 9.244371,0.0018641578, 2.6630826E-4, 0.0019973118,0.0028755665, 0.029034555, -0.03993988,Lying
-3.6690943, -0.35413775, 9.320942,0.0029293909, 0.0034620073, -1.3315413E-4,-0.022087812, 0.013665557, -0.043022156,Lying
-3.6571302, -0.39032918, 9.265906,0.0018641578, 0.0066577066, 9.320789E-4,-0.03175354, 0.038288206, -0.043455124,Lying
-3.649952, -0.392722, 9.261121,-0.0013315412, 0.0013315412, 9.320789E-4,-0.032774687, 0.023288041, -0.034959793,Lying
-3.6595232, -0.38793638, 9.258728,-0.0034620073, -7.9892477E-4, 0.0019973118,-0.022551298, 0.022982746, -0.017617226,Lying
-3.67388, -0.42622152, 9.25155,-0.0023967742, -7.9892477E-4, 0.0030625449,-0.005714655, -0.012308687, -0.019387245,Lying
-3.6714873, -0.39750767, 9.256335,-0.0045272405, -0.0029293909, 0.0030625449,0.014816761, -0.011313856, -0.002705574,Lying
-3.6906297, -0.31585258, 9.198908,-0.0055924733, -0.0039946237, 0.0019973118,0.020574808, -0.014721453, 0.0017747879,Lying
-3.6978083, -0.34217364, 9.225228,-0.0045272405, 2.6630826E-4, -1.3315413E-4,0.026876688, -0.036579162, -0.019075394,Lying
-3.6834514, -0.38554356, 9.273085,-0.009853406, 0.0023967742, -0.0022636203,0.01711917, -0.014940798, -0.018204689,Lying
-3.6595232, -0.3711866, 9.244371,-0.013049104, -0.0061250897, -0.0022636203,-0.012338638, 0.02737692, 0.05616951,Lying
-3.6355948, -0.36610186, 9.244371,-0.0034620073, -0.0018641578, 9.320789E-4,-6.761551E-4, -0.0077247024, 9.2983246E-4,Lying
-3.6355948, -0.40707895, 9.244371,0.0039946237, 0.010918639, 0.0030625449,0.008235931, -0.010700613, -0.0030021667,Lying
-3.6523447, -0.4022933, 9.270692,0.0018641578, 0.008788172, 0.004127778,2.7275085E-4, -0.0063285828, -0.0046215057,Lying
-3.6547375, -0.40468612, 9.299406,-0.0013315412, 2.6630826E-4, 0.004127778,-0.013558626, -0.04322043, -0.011387825,Lying
-3.6427734, -0.4142574, 9.275477,7.9892477E-4, 2.6630826E-4, 0.0019973118,-0.0107347965, -0.014272332, -0.0063667297,Lying
-3.6547375, -0.4118646, 9.287442,0.0029293909, 0.0055924733, -1.3315413E-4,-0.027922869, 0.06442821, -0.06136322,Lying
-3.6810586, -0.392722, 9.277871,-2.6630826E-4, 2.6630826E-4, 9.320789E-4,-0.033890724, 0.03679058, -0.03382778,Lying
-3.688237, -0.37836507, 9.213264,-0.0045272405, -0.008255556, 9.320789E-4,-0.020319939, -0.005384594, 0.013068199,Lying
-3.688237, -0.35174492, 9.237193,-0.0013315412, -7.9892477E-4, 0.0019973118,0.003382206, 0.008783996, -0.015203476,Lying
-3.6762729, -0.35174492, 9.280264,-2.6630826E-4, 0.0045272405, -1.3315413E-4,0.027217865, 0.013178617, -0.014381409,Lying
-3.649952, -0.39032918, 9.239586,-0.0066577066, -0.007190323, -0.0022636203,0.025022268, -0.025295794, -0.014357567,Lying
-3.6284165, -0.39750767, 9.2539425,-0.0055924733, -0.009320789, -0.0033288533,0.0063085556, -0.018605351, 0.010982513,Lying
-3.6451662, -0.3589234, 9.268299,7.9892477E-4, -7.9892477E-4, -0.0022636203,0.0036201477, -0.020284057, 0.03834057,Lying
-3.647559, -0.37836507, 9.246764,0.0029293909, -0.0018641578, -0.0011983871,0.014735222, -0.029303193, 0.013753891,Lying
-3.67388, -0.39750767, 9.268299,-0.0013315412, -0.0039946237, -1.3315413E-4,0.0019557476, -0.025766999, 0.024603844,Lying
-3.688237, -0.37597227, 9.2539425,0.0039946237, 0.0034620073, 9.320789E-4,-0.022969246, -0.007152468, 0.0147295,Lying
-3.67388, -0.38793638, 9.256335,0.005059857, 0.0055924733, 9.320789E-4,-0.02816248, 0.0060224533, -0.04793358,Lying
-3.67388, -0.40468612, 9.265906,-2.6630826E-4, -0.0018641578, -1.3315413E-4,-0.027558565, 0.031349808, -0.023308754,Lying
-3.6858442, -0.40468612, 9.230014,7.9892477E-4, -0.0018641578, 9.320789E-4,-0.015388489, 0.030099094, 0.019012451,Lying
-3.6858442, -0.38315073, 9.220443,0.0029293909, 0.0045272405, 0.005193011,0.011423826, -0.008829296, -0.02069664,Lying
-3.6930227, -0.3589234, 9.246764,-2.6630826E-4, -0.0029293909, 0.004127778,0.031392574, -0.015722632, -0.0063171387,Lying
-3.6427734, -0.4118646, 9.263514,-0.0023967742, -0.0029293909, 0.0019973118,0.013628244, 0.022135615, 0.0075979233,Lying
-3.6355948, -0.43818563, 9.287442,-2.6630826E-4, 0.0034620073, -1.3315413E-4,0.011462212, 0.002928853, -0.013255119,Lying
-3.6403806, -0.3807579, 9.273085,-0.0013315412, 2.6630826E-4, -0.0011983871,-0.014358759, -0.015376419, 0.008052826,Lying
-3.6547375, -0.392722, 9.25155,-0.0023967742, -0.0029293909, -0.0011983871,-0.028303862, 0.006482631, -0.006298065,Lying
-3.6714873, -0.38315073, 9.277871,-2.6630826E-4, 0.0034620073, 0.0019973118,-0.012847185, -0.0054038763, -0.0035324097,Lying
-3.649952, -0.38315073, 9.244371,-2.6630826E-4, 0.0023967742, 0.0030625449,-0.01197958, -0.02159962, 0.006014824,Lying
-3.6451662, -0.42382872, 9.277871,-0.0023967742, -0.0018641578, 0.0019973118,-0.023477077, -0.020596772, -0.02903366,Lying
-3.6690943, -0.37597227, 9.273085,-0.0023967742, -7.9892477E-4, -0.0011983871,-0.022849321, 0.0014360547, -0.037369728,Lying
-3.6667016, -0.35653058, 9.261121,-0.0034620073, -0.0029293909, -1.3315413E-4,-0.029556751, 0.025163352, -0.010830879,Lying
-3.661916, -0.392722, 9.265906,-0.0055924733, -0.010386022, -1.3315413E-4,0.018221378, -0.02562508, 0.00505352,Lying
-3.6523447, -0.41665024, 9.249157,-0.0034620073, -0.009320789, -1.3315413E-4,0.02290988, -0.049622625, 0.027415276,Lying
-3.6284165, -0.39032918, 9.246764,0.0018641578, 0.0034620073, 9.320789E-4,0.018126488, 0.007213235, 0.012832642,Lying
-3.647559, -0.3684947, 9.256335,7.9892477E-4, 0.0034620073, -1.3315413E-4,0.004232645, -0.0047369897, -0.008202553,Lying
-3.6786656, -0.35653058, 9.299406,-0.0034620073, -0.009320789, -0.0011983871,-0.013774157, 0.005376756, 0.016917229,Lying
-3.6547375, -0.4118646, 9.2539425,7.9892477E-4, -0.0018641578, -1.3315413E-4,0.007191658, 0.0050661564, -0.016202927,Lying
-3.6379876, -0.3999005, 9.261121,0.0029293909, 0.0045272405, 9.320789E-4,0.012382269, -0.03504941, 0.017047882,Lying
-3.647559, -0.3999005, 9.263514,0.0018641578, 2.6630826E-4, 0.0019973118,-0.0111300945, 0.011963904, 0.011851311,Lying
-3.6786656, -0.3807579, 9.261121,0.0029293909, 0.0034620073, 0.0030625449,-0.007816315, 0.029360771, 9.536743E-5,Lying
-3.6786656, -0.40947178, 9.287442,7.9892477E-4, 0.0023967742, 0.0030625449,-0.0024847984, -0.0067065954, 0.004881859,Lying
-3.6547375, -0.40707895, 9.256335,-0.0034620073, -0.005059857, 9.320789E-4,0.005970478, -0.02909422, -0.011818886,Lying
-3.688237, -0.35653058, 9.246764,-0.0013315412, -0.0029293909, -1.3315413E-4,0.028405905, -0.002408713, -0.013936043,Lying
-3.6954155, -0.33738798, 9.25155,0.0029293909, 0.0023967742, -0.0011983871,0.009341955, 0.01807934, -0.004067421,Lying
-3.67388, -0.3711866, 9.2539425,0.0039946237, 0.0066577066, 0.0019973118,-0.019889832, 0.028211862, 0.03818035,Lying
-3.6451662, -0.38315073, 9.2539425,0.0018641578, 0.0034620073, 0.004127778,0.0045645237, -0.026604056, -0.006863594,Lying
-3.6714873, -0.36370903, 9.249157,-2.6630826E-4, -0.0039946237, 0.004127778,0.019943953, -0.014379054, 3.4332275E-5,Lying
-3.6451662, -0.37836507, 9.25155,7.9892477E-4, 0.0013315412, 9.320789E-4,0.010252714, -0.014105439, 0.0024337769,Lying
-3.6355948, -0.43818563, 9.277871,0.0018641578, 0.0023967742, -1.3315413E-4,-0.019775867, 0.004570186, 1.8787384E-4,Lying
-3.649952, -0.3999005, 9.265906,-0.0013315412, -0.009320789, -1.3315413E-4,-0.020765305, -0.023125887, 0.02501297,Lying
-3.6714873, -0.38554356, 9.265906,-0.0013315412, -0.007190323, -1.3315413E-4,0.0018088818, -0.019795328, -0.006418228,Lying
-3.6858442, -0.41665024, 9.280264,0.005059857, 0.0055924733, 9.320789E-4,-0.029683113, 0.02853617, -0.015115738,Lying
-3.6690943, -0.4214359, 9.261121,0.0039946237, 0.0055924733, 0.0030625449,-0.03463936, 0.04519397, -0.0096235275,Lying
-3.6762729, -0.3807579, 9.265906,-0.0023967742, -0.007190323, 0.0030625449,-0.013893843, 0.011477739, -0.007472992,Lying
-3.6930227, -0.36370903, 9.237193,-0.0023967742, -0.007190323, 0.0019973118,0.013097763, -1.9949675E-4, -0.007709503,Lying
-3.6547375, -0.38793638, 9.222836,0.0029293909, 0.0013315412, 9.320789E-4,-0.012574434, 0.017751068, -0.012015343,Lying
-3.6523447, -0.35653058, 9.249157,0.0018641578, 2.6630826E-4, -1.3315413E-4,0.013357401, 0.002946198, -0.009296417,Lying
-3.6571302, -0.35653058, 9.2348,-0.0045272405, -0.010386022, -0.0011983871,0.020330906, -0.054161727, 0.015792847,Lying
-3.6523447, -0.4022933, 9.273085,-0.0023967742, -0.008255556, -0.0033288533,0.0042750835, -0.014652282, 0.0031290054,Lying
-3.6523447, -0.39750767, 9.280264,0.0039946237, 0.0055924733, -0.0033288533,-0.015752316, -7.427335E-4, 0.0033826828,Lying
-3.633202, -0.3807579, 9.261121,7.9892477E-4, 0.0013315412, -1.3315413E-4,-0.028892279, -0.030952781, 0.017249107,Lying
-3.6547375, -0.4142574, 9.273085,-0.0023967742, -0.007190323, 0.0019973118,-0.0129776, -0.034268886, -0.002336502,Lying
-3.6427734, -0.42382872, 9.256335,0.0029293909, 0.0034620073, 0.004127778,-0.018857718, 0.005436927, 0.002588272,Lying
-3.6667016, -0.4118646, 9.275477,0.005059857, 0.008788172, 0.005193011,-0.03285694, 0.020211816, -0.024711609,Lying
-3.6954155, -0.3711866, 9.258728,-0.0034620073, -0.007190323, 0.0030625449,0.0040709972, -0.003231734, -0.038246155,Lying
-3.661916, -0.35653058, 9.25155,-0.0034620073, -0.010386022, -1.3315413E-4,0.0044145584, 0.02759847, -0.012199402,Lying
-3.6451662, -0.38793638, 9.277871,0.0039946237, 0.0045272405, 9.320789E-4,4.5657158E-4, 0.025889575, -0.025395393,Lying
-3.6523447, -0.38554356, 9.270692,-2.6630826E-4, -0.0018641578, 9.320789E-4,0.004745722, -0.01898837, 0.012372017,Lying
-3.6355948, -0.35413775, 9.25155,-0.0045272405, -0.011451255, -0.0011983871,0.0025529861, -0.012842059, 0.018138885,Lying
-3.6523447, -0.36370903, 9.2539425,0.0018641578, 0.0013315412, -0.0011983871,0.02121377, 0.003550291, -9.1457367E-4,Lying
-3.647559, -0.3684947, 9.280264,0.0029293909, 0.0055924733, -1.3315413E-4,6.4587593E-4, -0.029494137, 0.011060715,Lying
-3.6403806, -0.36131623, 9.25155,-0.0023967742, -0.007190323, -0.0022636203,0.01091361, -0.037193805, -0.00600338,Lying
-3.661916, -0.35413775, 9.249157,-0.0013315412, -0.0029293909, -0.0033288533,-0.0131521225, -0.023910284, 0.012526512,Lying
-3.6571302, -0.3807579, 9.263514,0.005059857, 0.0066577066, -0.0011983871,-0.039341927, 0.01544404, -0.0036773682,Lying
-3.6403806, -0.3999005, 9.268299,0.0029293909, 0.0034620073, 0.0030625449,-0.0049841404, 0.028093606, -0.01028347,Lying
-3.67388, -0.38554356, 9.258728,-0.0034620073, -0.0039946237, 0.0030625449,0.010704517, -0.0025491416, 0.015276909,Lying
-3.6762729, -0.3684947, 9.239586,0.0029293909, -7.9892477E-4, 0.0019973118,0.003269434, -8.042455E-4, 0.0077409744,Lying
-3.6643088, -0.4022933, 9.232407,0.005059857, 0.0045272405, 0.0019973118,0.020177364, 0.02829495, -0.010766029,Lying
-3.6762729, -0.38554356, 9.258728,7.9892477E-4, -0.0029293909, 0.0019973118,0.0027890205, 0.017809838, -0.008302689,Lying
-3.6978083, -0.3684947, 9.244371,-0.0013315412, -0.005059857, 0.0019973118,0.006444931, 0.01268059, 0.017102242,Lying
-3.6858442, -0.3711866, 9.261121,0.0029293909, 0.0034620073, 0.0019973118,0.013796568, 0.018549502, -0.011037827,Lying
-3.6762729, -0.3807579, 9.265906,0.0029293909, 0.0066577066, 9.320789E-4,-0.006329298, 0.02429694, -0.012545586,Lying
-3.6451662, -0.39750767, 9.263514,-0.0013315412, 0.0013315412, 0.0019973118,-0.0012423992, -0.0018889904, 0.0018663406,Lying
-3.6595232, -0.39511484, 9.287442,-0.0013315412, 0.0013315412, 0.0019973118,0.015252113, -0.020255327, 0.0065364838,Lying
-3.6571302, -0.3807579, 9.273085,0.0018641578, 0.0045272405, 0.0019973118,-0.016870022, -0.0061526597, -0.0026454926,Lying
-3.621238, -0.42861435, 9.263514,7.9892477E-4, 0.0045272405, 0.0019973118,-0.017816305, 0.009981871, -0.020775795,Lying
-3.6188452, -0.41904306, 9.265906,-0.0023967742, -7.9892477E-4, 0.0019973118,-0.0057759285, -0.02248612, -0.027070045,Lying
-3.6523447, -0.3711866, 9.256335,-0.0023967742, -0.0029293909, -1.3315413E-4,-0.017683744, -0.0050957203, -8.8500977E-4,Lying
-3.6834514, -0.39750767, 9.270692,7.9892477E-4, 0.0023967742, -0.0011983871,-0.037526608, 0.011226028, -0.014590263,Lying
-3.6786656, -0.39750767, 9.270692,-2.6630826E-4, -0.0029293909, -0.0011983871,-0.02522707, 0.008666575, 0.0019016266,Lying
-3.6523447, -0.36131623, 9.239586,-0.0023967742, -0.007190323, -0.0022636203,-0.016411543, -3.05295E-4, 0.0059843063,Lying
-3.6595232, -0.3589234, 9.249157,-0.0013315412, -0.0039946237, -1.3315413E-4,0.013528347, -0.016260803, 0.0031986237,Lying
-3.6595232, -0.3711866, 9.230014,0.0018641578, -7.9892477E-4, -0.0011983871,-9.710789E-4, -0.013648182, 0.026177406,Lying
-3.6355948, -0.37357944, 9.270692,0.0018641578, 0.0013315412, -1.3315413E-4,0.0016052723, 3.8135052E-4, 0.0114889145,Lying
-3.6188452, -0.38315073, 9.280264,-0.0013315412, -0.007190323, -1.3315413E-4,0.035007954, -0.04569906, 0.0013475418,Lying
-3.6451662, -0.39032918, 9.258728,-0.0023967742, -0.010386022, -0.0022636203,0.03430462, -0.034333616, 0.002910614,Lying
-3.6523447, -0.39511484, 9.2946205,0.0039946237, 0.0045272405, -0.0011983871,0.0015234947, 0.012504876, -0.006166458,Lying
-3.647559, -0.4022933, 9.275477,0.0029293909, 0.0055924733, 9.320789E-4,-0.027643204, -0.0139651, 0.00829792,Lying
-3.6571302, -0.40707895, 9.25155,-0.0023967742, -0.007190323, 0.0030625449,-0.023338795, -0.0132905245, 0.007536888,Lying
-3.6834514, -0.39032918, 9.261121,-2.6630826E-4, 0.0013315412, 0.0030625449,0.0031628609, 0.021720946, -0.022725105,Lying
-3.6834514, -0.392722, 9.25155,0.0029293909, 0.008788172, 0.0030625449,-0.0023195744, 0.022581369, -0.0121154785,Lying
-3.6858442, -0.392722, 9.249157,-0.0023967742, -0.0018641578, 0.0030625449,-0.0025537014, 0.0104596615, -0.030351639,Lying
-3.6714873, -0.3684947, 9.241979,-0.0023967742, -0.0039946237, 0.0030625449,0.020001411, 0.008004427, 0.009762764,Lying
-3.67388, -0.35653058, 9.215657,0.0018641578, 2.6630826E-4, 0.0019973118,0.035600185, -0.001992464, 0.01870346,Lying
-3.6595232, -0.36370903, 9.246764,0.0018641578, -7.9892477E-4, 0.0019973118,0.008810043, -0.009340256, -0.0028324127,Lying
-3.6523447, -0.392722, 9.265906,-2.6630826E-4, 2.6630826E-4, 9.320789E-4,0.0016181469, -0.013678163, 0.032014847,Lying
-3.6547375, -0.35413775, 9.273085,0.0029293909, 2.6630826E-4, -1.3315413E-4,0.006236315, -0.020675808, 0.012417793,Lying
-3.6236308, -0.37836507, 9.261121,0.0029293909, 0.0013315412, -0.0011983871,-0.0030133724, -0.025050938, -0.011082649,Lying
-3.6188452, -0.4214359, 9.299406,0.0018641578, 0.0034620073, -1.3315413E-4,-0.027780533, -0.008326083, -0.0012264252,Lying
-3.6451662, -0.392722, 9.265906,0.0018641578, 0.0023967742, 0.0019973118,-0.026422739, -0.010831684, -0.010296822,Lying
-3.6643088, -0.38793638, 9.2539425,-0.0013315412, -0.0018641578, 0.004127778,-0.028161287, -0.01052323, -0.01239109,Lying
-3.67388, -0.38793638, 9.244371,-0.0013315412, 2.6630826E-4, 0.0030625449,-0.0132648945, 0.013005257, -0.018898964,Lying
-3.6786656, -0.39750767, 9.241979,7.9892477E-4, 2.6630826E-4, 0.0019973118,-0.015082121, 0.023870409, -0.043730736,Lying
-3.6786656, -0.4022933, 9.237193,-0.0023967742, -0.008255556, 9.320789E-4,-0.0021383762, 0.016485065, -0.012728691,Lying
-3.6954155, -0.3493521, 9.241979,-0.0023967742, -0.008255556, -1.3315413E-4,0.0034189224, -0.011420488, 0.0056591034,Lying
-3.6643088, -0.3807579, 9.275477,0.0018641578, -7.9892477E-4, -0.0011983871,8.34465E-4, 0.025765121, 0.012348175,Lying
-3.633202, -0.4022933, 9.308977,0.0018641578, -7.9892477E-4, -0.0011983871,0.030755043, 0.0015047491, 2.8705597E-4,Lying
-3.609274, -0.38315073, 9.25155,-0.0034620073, -0.009320789, -0.0022636203,0.0326972, -0.039459497, 0.036702156,Lying
-3.6355948, -0.38315073, 9.237193,0.0018641578, -0.0018641578, -0.0033288533,0.005777359, -0.010453939, 0.0029153824,Lying
-3.6451662, -0.38315073, 9.292228,0.0061250897, 0.008788172, -0.0011983871,-0.01140523, -0.006470382, -0.008194923,Lying
-3.649952, -0.37836507, 9.273085,-0.0013315412, -0.0018641578, -1.3315413E-4,-0.020622492, -0.006010711, -0.017306328,Lying
-3.661916, -0.37597227, 9.244371,-0.0045272405, -0.007190323, 0.0019973118,-0.02582407, -0.014414072, -0.01951313,Lying
-3.700201, -0.36610186, 9.246764,-0.0013315412, 0.0023967742, 0.0030625449,-0.024523973, -0.018542975, -0.023320198,Lying
-3.6930227, -0.3684947, 9.2539425,7.9892477E-4, 0.0055924733, 0.004127778,-0.03890562, 0.032591134, -0.017530441,Lying
-3.6643088, -0.38793638, 9.265906,-0.0023967742, -7.9892477E-4, 0.006258244,-0.0076060295, 0.0013883114, 0.015431404,Lying
-3.6164522, -0.39511484, 9.2539425,-0.0023967742, -0.007190323, 0.0019973118,0.021492958, -0.019215286, 0.04685116,Lying
-3.6308093, -0.40707895, 9.265906,0.0018641578, 0.0013315412, 9.320789E-4,0.04416895, -4.4322014E-4, -0.010209084,Lying
-3.6595232, -0.38554356, 9.273085,0.0029293909, 0.0055924733, 9.320789E-4,0.018211842, -0.0010094941, -0.023397446,Lying
-3.6164522, -0.37357944, 9.258728,-0.0013315412, -0.0039946237, -0.0011983871,0.007624626, -6.582141E-4, 0.030371666,Lying
-3.6379876, -0.37836507, 9.261121,7.9892477E-4, -0.0039946237, -0.0033288533,0.002006054, 0.004085511, 0.010549545,Lying
-3.6714873, -0.37357944, 9.277871,0.005059857, 0.008788172, -0.0011983871,-0.008103609, 0.005456209, -0.017019272,Lying
-3.6834514, -0.36131623, 9.249157,0.0039946237, 0.008788172, -1.3315413E-4,-0.04334116, 0.013842076, -0.013555527,Lying
-3.6523447, -0.37597227, 9.261121,-0.0013315412, 0.0013315412, 9.320789E-4,-0.03471327, 0.01123482, -0.0060567856,Lying
-3.647559, -0.3807579, 9.246764,-2.6630826E-4, 2.6630826E-4, 0.004127778,-0.0056967735, -0.007905036, 0.0057401657,Lying
-3.6547375, -0.38315073, 9.232407,-2.6630826E-4, -7.9892477E-4, 0.004127778,0.04068947, -0.014828682, -0.0060834885,Lying
-3.649952, -0.3807579, 9.249157,-0.0023967742, -7.9892477E-4, 0.0030625449,0.025315523, -0.02570334, 0.0056562424,Lying
-3.6595232, -0.39750767, 9.256335,-2.6630826E-4, -0.0018641578, 9.320789E-4,-0.003643036, -0.00402382, 0.012286186,Lying
-3.649952, -0.39511484, 9.275477,0.0018641578, -7.9892477E-4, 9.320789E-4,0.038020372, 0.0072951615, -0.0020885468,Lying
-3.6523447, -0.3684947, 9.273085,-2.6630826E-4, 0.0013315412, -1.3315413E-4,0.016140938, 0.0024767816, 3.8909912E-4,Lying
-3.6571302, -0.38315073, 9.282657,-2.6630826E-4, 0.0013315412, -0.0011983871,-0.016595364, 0.0071557164, 0.016677856,Lying
-3.6451662, -0.392722, 9.256335,7.9892477E-4, 0.0023967742, -1.3315413E-4,-0.027204275, 0.018363774, -0.011507034,Lying
-3.649952, -0.3711866, 9.241979,7.9892477E-4, 0.0023967742, 9.320789E-4,0.0042290688, 0.0036522448, 6.132126E-4,Lying
-3.6451662, -0.3589234, 9.258728,7.9892477E-4, 2.6630826E-4, 9.320789E-4,0.008767843, -0.001306504, -0.013289452,Lying
-3.649952, -0.38315073, 9.263514,-2.6630826E-4, -7.9892477E-4, -1.3315413E-4,0.0013816357, -0.0035224557, -0.026796341,Lying
-3.6714873, -0.37836507, 9.258728,-0.0013315412, -0.0029293909, -1.3315413E-4,0.00544405, -8.453131E-4, -0.009889603,Lying
-3.6595232, -0.4022933, 9.237193,-0.0045272405, -0.0039946237, -0.0011983871,-0.00471735, -0.016145825, -0.002861023,Lying
-3.6762729, -0.37836507, 9.270692,-0.0034620073, -0.0029293909, -1.3315413E-4,0.004180193, -0.012673169, 0.015579224,Lying
-3.6714873, -0.36131623, 9.2539425,-2.6630826E-4, 0.0013315412, 9.320789E-4,0.0019612312, 0.013203263, 0.01283741,Lying
-3.633202, -0.4022933, 9.244371,7.9892477E-4, 2.6630826E-4, 9.320789E-4,-0.0026865005, -0.0013364255, 0.02168274,Lying
-3.6451662, -0.39750767, 9.265906,-2.6630826E-4, -0.0029293909, -0.0011983871,0.008450747, -0.0104242265, -0.0047159195,Lying
-3.647559, -0.3711866, 9.244371,0.0018641578, -0.0018641578, -0.0011983871,0.003196478, 0.010519445, -0.01859665,Lying
-3.649952, -0.40707895, 9.256335,7.9892477E-4, 0.0034620073, -1.3315413E-4,0.0083248615, 0.021615416, -0.0015354156,Lying
-3.6427734, -0.4142574, 9.289835,-0.0013315412, -0.0018641578, -1.3315413E-4,0.0030810833, -0.0020172596, 0.003025055,Lying
-3.6595232, -0.4022933, 9.258728,-0.0023967742, -0.0039946237, 9.320789E-4,-0.018564701, 0.0030387938, -0.0019702911,Lying
-3.6690943, -0.38554356, 9.270692,-0.0023967742, 0.0023967742, 0.0030625449,-0.005928278, -0.020009339, -0.02256298,Lying
-3.6451662, -0.37836507, 9.268299,-0.0034620073, -0.0018641578, 9.320789E-4,-0.022267103, 0.0043589473, 0.010499954,Lying
-3.661916, -0.3999005, 9.268299,-2.6630826E-4, -0.005059857, -1.3315413E-4,-0.017791271, 0.020479143, -0.0064105988,Lying
-3.661916, -0.38793638, 9.256335,7.9892477E-4, 0.0034620073, 9.320789E-4,0.020463705, -0.019774765, -0.015226364,Lying
-3.6571302, -0.35413775, 9.246764,-0.0013315412, 0.0013315412, 9.320789E-4,0.008439302, -0.014314771, 0.0062217712,Lying
-3.6427734, -0.37597227, 9.246764,-0.0013315412, -7.9892477E-4, 0.0019973118,0.00571084, 0.0117301345, -0.014873505,Lying
-3.6595232, -0.3711866, 9.25155,-0.0023967742, 0.0013315412, 9.320789E-4,0.003440857, -0.023038328, -0.0026922226,Lying
-3.649952, -0.38793638, 9.246764,-0.0013315412, -0.0018641578, -0.0011983871,0.009930611, -0.028899431, 0.029694557,Lying
-3.6403806, -0.4022933, 9.25155,0.0029293909, -7.9892477E-4, -1.3315413E-4,-0.0067567825, -0.016865283, -0.0014781952,Lying
-3.649952, -0.39750767, 9.277871,0.007190323, 0.0077229394, 9.320789E-4,-0.014431953, -0.0014253557, 0.010631561,Lying
-3.6547375, -0.37836507, 9.308977,0.0039946237, 0.0023967742, 0.0019973118,0.009637356, 0.0047256947, 0.008097649,Lying
-3.6355948, -0.41665024, 9.275477,0.0018641578, -0.0018641578, 0.0030625449,-0.0072045326, -0.016813874, 0.0076818466,Lying
-3.6140594, -0.40947178, 9.268299,7.9892477E-4, 0.0023967742, 9.320789E-4,-0.0065410137, -0.0048807263, -0.0039949417,Lying
-3.6140594, -0.40468612, 9.263514,0.0018641578, 0.0023967742, 9.320789E-4,-0.00126791, 0.027307421, -0.012971878,Lying
-3.5901313, -0.47168517, 9.349655,-2.6630826E-4, 2.6630826E-4, 0.0019973118,0.0127244, 0.0054644346, -0.01252079,Lying
-3.6451662, -0.43100718, 9.325727,-0.0013315412, -7.9892477E-4, -1.3315413E-4,-0.004055977, 0.010157287, -0.0075206757,Lying
-3.6547375, -0.33499518, 9.282657,7.9892477E-4, 0.0013315412, -1.3315413E-4,0.0055701733, -0.0065223575, -0.011816025,Lying
-3.6762729, -0.37597227, 9.215657,7.9892477E-4, -0.0029293909, -0.0033288533,0.014101505, -0.020107985, -0.007003784,Lying
-3.7265222, -0.38554356, 9.256335,0.0029293909, -0.007190323, -0.008655018,0.0030362606, -0.014721155, 0.01817894,Lying
-3.7217364, -0.3469593, 9.289835,0.011451255, -0.0029293909, -0.0118507175,-0.0023036003, 0.003100723, 0.047387123,Lying
-3.6116667, -0.39511484, 9.299406,0.01677742, -0.0018641578, -0.01291595,0.015870571, -0.036113918, 0.013134956,Lying
-3.633202, -0.3807579, 9.258728,0.015712187, -7.9892477E-4, -0.01611165,0.035919666, -0.029612988, 0.0055799484,Lying
-3.6571302, -0.31345975, 9.292228,0.014646954, 0.0023967742, -0.018242115,0.035007954, -0.02530852, 8.211136E-4,Lying
-3.6284165, -0.3589234, 9.306584,0.013581721, -0.0018641578, -0.02037258,0.056516886, -0.090281814, 0.0839262,Lying
-3.7097723, -0.39032918, 9.275477,0.018907886, -0.010386022, -0.027829213,-6.7186356E-4, -0.049314976, 0.057109833,Lying
-3.6762729, -0.22971097, 9.237193,0.031690683, 0.0077229394, -0.028894445,-0.008764029, 0.04136908, 0.013830185,Lying
-3.6834514, -0.17706887, 9.230014,0.033821147, 0.014114338, -0.031024912,-0.027057648, -0.0031738877, -0.050735474,Lying
-3.6451662, -0.29671, 9.160323,0.02423405, 0.0023967742, -0.024633514,-0.074540615, -0.014892757, -0.009685516,Lying
-3.6810586, -0.34456646, 9.263514,0.022103585, -0.0018641578, -0.017176883,-0.0678792, 0.01995039, 0.022769928,Lying
-3.7337005, -0.24646074, 9.275477,0.02742975, 0.0023967742, -0.01611165,0.04120779, -0.03074357, 0.031247139,Lying
-3.6714873, -0.2727818, 9.273085,0.029560216, -0.0029293909, -0.018242115,0.018345594, -0.01977387, -0.009569168,Lying
-3.661916, -0.32063824, 9.18455,0.033821147, 0.0077229394, -0.01291595,-0.0041537285, 0.04065618, 0.023472786,Lying
-3.6667016, -0.2847459, 9.134003,0.040212546, 0.010918639, -0.0118507175,0.025609732, -0.010950536, 0.037073135,Lying
-3.6906297, -0.26799613, 9.265906,0.04127778, -0.005059857, -0.009720251,-0.054936886, -0.047293276, 0.0051088333,Lying
-3.688237, -0.22731815, 9.316155,0.060451973, 0.0066577066, -0.004394086,-0.01954484, 0.09906396, -0.03203869,Lying
-3.7145581, -0.29910284, 9.203693,0.066843376, 0.04074516, -0.0022636203,-0.018674374, 0.13507617, -0.035492897,Lying
-3.6643088, -0.28713873, 9.2348,0.04447348, 0.02157097, 0.0019973118,0.022804976, 0.0068167746, -0.100221634,Lying
-3.6906297, -0.22971097, 9.268299,0.025299285, -0.014646954, 0.004127778,-0.015252113, -0.04446885, 0.0015230179,Lying
-3.700201, -0.22971097, 9.169894,0.033821147, -7.9892477E-4, 0.0030625449,-0.065816164, 0.04578066, 0.01280117,Lying
-3.6930227, -0.19142582, 9.354441,0.047669176, 0.031158065, 0.0030625449,0.0020861626, 0.010168552, 0.011972427,Lying
-3.6571302, -0.18185452, 9.313763,0.039147314, 0.008788172, 9.320789E-4,0.01282835, -0.043449014, -0.073700905,Lying
-3.633202, -0.22013968, 9.198908,0.023168819, -0.008255556, -1.3315413E-4,0.0063090324, -0.011338294, -0.120573044,Lying
-3.6308093, -0.2009971, 9.261121,0.009320789, 2.6630826E-4, -0.0075897854,-0.017055035, 0.004138738, 0.010772705,Lying
-3.6451662, -0.16271193, 9.196515,0.007190323, -0.010386022, -0.0033288533,-0.016022444, 0.042332917, 0.05827713,Lying
-3.6260235, -0.27038896, 9.230014,0.010386022, -0.011451255, 0.006258244,-0.04295206, -0.030815184, -0.053355217,Lying
-3.6667016, -0.25603202, 9.304192,0.01997312, -0.0018641578, 0.006258244,0.0068063736, -0.022164792, -0.021706581,Lying
-3.6954155, -0.20817557, 9.213264,0.017842652, -0.007190323, 9.320789E-4,-0.020162582, 0.030933231, 0.010840416,Lying
-3.6834514, -0.2632105, 9.198908,0.014646954, -0.005059857, 0.0030625449,-0.029634476, 0.027108252, -0.084890366,Lying
-3.7049868, -0.22731815, 9.277871,0.009320789, -0.008255556, 0.006258244,-0.023124456, 0.06118229, 0.09562111,Lying
-3.6284165, -0.14596218, 9.095717,0.01677742, -0.018907886, 0.0115844095,0.009099722, 0.064641014, 0.05166626,Lying
-3.688237, -0.0020937198, 8.925827,0.02742975, 0.0066577066, 0.013714875,0.03318429, 0.019644007, -0.060871124,Lying
-3.7504504, -0.1794617, 9.375977,0.023168819, 0.013049104, 0.0115844095,0.036739588, 0.03262405, 0.0021686554,Lying
-3.5829527, -0.46929234, 9.457631,0.014646954, -0.0029293909, 0.007323477,0.021131992, 0.065495074, -0.06069565,Lying
-3.6020954, -0.35413775, 9.4070835,0.007190323, -0.0061250897, 0.007323477,0.03790021, -0.04266885, -0.026715279,Lying
-3.6930227, -0.04516453, 9.2348,0.007190323, -0.008255556, 0.005193011,-0.004164934, -0.02898039, 0.04535103,Lying
-3.728915, -0.15074782, 9.215657,0.012516488, 0.0034620073, 0.0030625449,-0.03119564, 0.015879825, -0.043969154,Lying
-3.5781672, -0.45732823, 9.4070835,0.009320789, 2.6630826E-4, -0.0011983871,-0.01854086, -0.03946741, -0.056420326,Lying
-3.6260235, -0.26679972, 9.355638,-2.6630826E-4, -0.013581721, -0.004394086,-0.04117942, -0.0030642152, 0.020928383,Lying
-3.694219, -0.19381863, 9.154342,0.005059857, -0.014646954, -0.006524552,0.031680107, 0.07533249, -0.15680122,Lying
-3.560221, -0.20458634, 9.317352,0.012516488, 0.011983871, -0.022503048,-0.02525711, 0.21112318, -0.31520462,Lying
-3.6583266, -0.31345975, 9.267103,7.9892477E-4, 0.0034620073, -0.021437814,-0.08410573, 0.0340821, 0.13087654,Lying
-3.6595232, -0.16749759, 9.277871,-0.015179571, -0.072169535, -0.015046417,0.068026304, -0.24352613, 0.20028019,Lying
-3.6236308, -0.19980069, 9.267103,-2.6630826E-4, -0.066843376, -0.019307349,0.035364628, -0.12287235, 0.1403389,Lying
-3.5829527, -0.26679972, 9.318549,0.03808208, 0.0077229394, -0.017176883,-0.05252695, 0.17441343, -0.030697823,Lying
-3.6068811, -0.23330021, 9.250353,0.028494984, 0.0290276, -0.010785485,-0.08044982, 0.062441885, -0.046310425,Lying
-3.6451662, -0.20338993, 9.288638,-0.013049104, -0.052995343, -0.0075897854,0.058739424, -0.23321353, 0.13686085,Lying
-3.6355948, -0.20458634, 9.285049,-0.015179571, -0.06364767, -0.0054593193,0.04548478, -0.22237395, 0.12794971,Lying
-3.6236308, -0.21296121, 9.24796,-0.010918639, -0.047669176, -0.0145138,-0.021399975, -0.024301395, 0.06664848,Lying
-3.629613, -0.19142582, 9.280264,-0.0077229394, -0.019440502, 0.006258244,-0.09009385, 0.048072234, -0.13138485,Lying
-3.621238, -0.2009971, 9.263514,0.014646954, 0.015179571, -0.0038614697,0.045243025, 0.033726707, 0.03142929,Lying
-3.6056845, -0.2428715, 9.237193,0.0018641578, -0.008255556, 0.0046603945,-0.052648306, -0.073407575, -0.018823624,Lying
-3.633202, -0.21655045, 9.265906,0.0055924733, -0.0077229394, 0.0030625449,-0.053406954, 0.06909445, -0.008333206,Lying
-3.649952, -0.1902294, 9.263514,0.0013315412, -0.0039946237, 0.004127778,-0.017584562, 0.03501174, -0.018758774,Lying
-3.6152558, -0.22851457, 9.270692,0.0029293909, -0.0077229394, 3.9946238E-4,0.020999432, -0.031537905, 0.031108856,Lying
-3.6224344, -0.24765715, 9.291031,0.0029293909, 0.0034620073, -0.0011983871,-0.0022556782, 0.0014966875, -0.03570175,Lying
-3.6224344, -0.20697916, 9.2336035,-7.9892477E-4, -0.0023967742, 0.0014646954,-0.039652824, 0.030432805, 0.0023756027,Lying
-3.6320057, -0.20219351, 9.263514,-0.0039946237, -0.009320789, 9.320789E-4,-0.030715704, 0.028902188, -0.0018005371,Lying
-3.5949168, -0.2321038, 9.302996,-0.0013315412, -2.6630826E-4, 0.0025299285,-0.01815486, 0.019895747, -0.0376482,Lying
-3.6044881, -0.20697916, 9.243175,0.0029293909, 0.005059857, 0.0025299285,-0.022438526, 0.03938189, -0.004799843,Lying
-3.5937204, -0.2117648, 9.319745,-0.0018641578, -0.0039946237, 0.0014646954,-0.014290333, 0.02903527, -0.02111721,Lying
-3.5901313, -0.2536392, 9.31137,-0.0061250897, -0.009320789, -0.0022636203,-4.2366982E-4, -0.011219129, -0.046500206,Lying
-3.5949168, -0.21535404, 9.206086,-0.0013315412, -2.6630826E-4, -0.0038614697,-0.02710867, 0.015126765, -0.017178535,Lying
-3.621238, -0.22971097, 9.318549,-0.0018641578, -0.0023967742, -0.0038614697,-0.042859793, 0.04068832, -0.019079208,Lying
-3.5973098, -0.24885355, 9.289835,-0.0055924733, -0.014114338, -0.0027962367,-0.010365248, 0.0034615844, -0.012442589,Lying
-3.6020954, -0.27038896, 9.282657,-0.0018641578, -0.008255556, -0.004926703,-0.01845479, -0.014510453, 0.0070943832,Lying
-3.609274, -0.22731815, 9.316155,0.0013315412, 0.007190323, -0.0022636203,-0.016584635, 0.025258914, -0.04823208,Lying
-3.5973098, -0.23449662, 9.265906,-0.0034620073, -0.005059857, 3.9946238E-4,-0.026189089, 0.029631004, -0.018012047,Lying
-3.6236308, -0.23449662, 9.275477,-0.008255556, -0.013581721, -0.0011983871,0.00816679, 0.0012379885, 0.019898415,Lying
-3.6260235, -0.2536392, 9.292228,-0.0029293909, 0.0013315412, 0.0019973118,-0.0011293888, 0.025891185, -0.038553238,Lying
-3.6308093, -0.20578274, 9.289835,-0.0029293909, 0.0055924733, -1.3315413E-4,0.010310411, 0.020923242, 0.037226677,Lying
-3.6379876, -0.21296121, 9.2946205,-0.0045272405, -0.011451255, -1.3315413E-4,0.011406422, -0.019486815, 0.02711296,Lying
-3.6116667, -0.21774685, 9.285049,-0.009853406, -0.0061250897, -0.0033288533,0.007992744, -0.013419867, 0.02517128,Lying
-3.5829527, -0.20817557, 9.277871,-0.0077229394, -0.005059857, -0.0011983871,0.006821394, -0.011525989, 0.024019241,Lying
-3.5949168, -0.22253251, 9.282657,-0.0045272405, -0.0029293909, 0.0019973118,0.0014488697, 0.026571482, -0.0788517,Lying
-3.6116667, -0.2009971, 9.285049,7.9892477E-4, 0.0066577066, 0.0019973118,-0.022890568, 0.011514008, 0.03306198,Lying
-3.592524, -0.2321038, 9.270692,-0.0013315412, 0.0013315412, -1.3315413E-4,0.0012578964, -0.007150531, 0.0042676926,Lying
-3.6355948, -0.2416751, 9.285049,-0.0045272405, -0.009320789, -1.3315413E-4,-0.0050673485, -0.02694413, -0.003440857,Lying
-3.6379876, -0.2321038, 9.261121,-2.6630826E-4, -0.0018641578, -1.3315413E-4,-0.012180805, 0.015691549, 0.028964043,Lying
-3.6403806, -0.22013968, 9.273085,0.0029293909, 0.0023967742, -0.0011983871,2.1576881E-4, 0.007786259, -0.02048111,Lying
-3.609274, -0.2321038, 9.275477,-0.0013315412, -0.0029293909, -1.3315413E-4,-0.025786877, 0.007771045, -0.010731697,Lying
-3.5901313, -0.22492532, 9.277871,-0.0013315412, -0.0039946237, -0.0011983871,-0.027960062, -0.010695562, 0.005566597,Lying
-3.609274, -0.2416751, 9.258728,0.0018641578, -7.9892477E-4, 9.320789E-4,-0.031801224, 0.035580367, 0.0030002594,Lying
-3.6116667, -0.2105684, 9.280264,0.0029293909, 0.0013315412, 0.0019973118,-0.03744936, 0.02679415, 0.00760746,Lying
-3.5973098, -0.22492532, 9.282657,-2.6630826E-4, -0.0029293909, 9.320789E-4,-0.011247635, 0.021252975, -0.002111435,Lying
-3.5829527, -0.25124636, 9.256335,0.0018641578, -0.0039946237, 0.0019973118,0.016211748, 0.029340148, -0.009272575,Lying
-3.6140594, -0.21535404, 9.249157,0.0018641578, 2.6630826E-4, -1.3315413E-4,0.0041344166, 0.014147952, -0.004324913,Lying
-3.6355948, -0.2105684, 9.239586,0.0018641578, 2.6630826E-4, -1.3315413E-4,-0.012171507, 0.03419657, -0.0018587112,Lying
-3.592524, -0.32063824, 9.086145,-2.6630826E-4, -0.0029293909, -1.3315413E-4,0.0062355995, 0.003009811, -0.015892029,Lying
-3.6236308, -0.18664017, 9.371191,-0.0034620073, -0.005059857, -1.3315413E-4,-0.036551714, -0.005733341, -0.0018014908,Lying
-3.6284165, -0.17467605, 9.368798,-0.0023967742, 0.0013315412, 9.320789E-4,-0.03741479, 0.0040800422, -0.02479744,Lying
-3.6260235, -0.21296121, 9.230014,-0.0023967742, 0.0013315412, 9.320789E-4,-0.038249016, 0.015881985, -0.012291908,Lying
-3.5949168, -0.22731815, 9.179765,-0.0045272405, -0.0061250897, -1.3315413E-4,-0.007958651, 0.0045834184, -0.009969711,Lying
-3.5973098, -0.25842485, 9.059825,-0.0045272405, -0.0061250897, -1.3315413E-4,0.009743214, 0.01218684, -0.0077238083,Lying
-3.6068811, -0.2105684, 9.148359,-0.0013315412, 2.6630826E-4, -1.3315413E-4,-0.00906539, -0.0041844547, -0.025969505,Lying
-3.5901313, -0.27038896, 9.445667,-0.0023967742, -0.0029293909, -0.0011983871,-0.011606693, 0.02656366, -0.0044546127,Lying
-3.5204403, -0.5913263, 9.6682,-0.0045272405, -0.009320789, -0.0011983871,0.0010166168, 0.012666166, -0.0026111603,Lying
-3.5901313, -0.3999005, 9.356833,-0.0045272405, -0.0061250897, -0.0011983871,0.013784409, -0.0123464465, -0.02839756,Lying
-3.5949168, -0.31345975, 9.106484,-0.0055924733, -0.0018641578, -0.0022636203,-0.017123222, 0.023942217, -0.03450203,Lying
-3.5168512, -0.31106696, 9.190533,-0.0077229394, -7.9892477E-4, 9.320789E-4,-0.03753519, 0.029076412, -0.042635918,Lying
-3.5180476, -0.5051847, 9.610772,-0.01837527, 0.0013315412, -0.0022636203,0.005616665, -0.0750117, -0.18924141,Lying
-3.6631124, -0.4728816, 9.432208,-0.048201796, -0.015712187, -0.008655018,-0.027493477, 0.066263616, 0.091778755,Lying
-3.5336008, -0.2536392, 9.031111,-0.03648423, -0.043408245, -0.0054593193,-0.038904905, 0.08244842, 0.083613396,Lying
-3.5422747, -0.22851457, 9.331709,-0.008788172, 0.0055924733, -0.0033288533,-0.03432679, 0.04442945, -0.05305767,Lying
-3.633202, -0.36610186, 9.379565,-0.0066577066, 0.016244804, -1.3315413E-4,-2.1648407E-4, 0.030239612, -0.09877586,Lying
-3.5240295, -0.41545382, 9.323335,-0.038614698, -0.015712187, -0.0054593193,-0.0053327084, 0.006321907, -0.21214867,Lying
-3.498905, -0.43818563, 9.356833,-0.072702155, -0.025299285, -0.0075897854,-0.018924952, 0.06576881, -0.120752335,Lying
-3.572185, -0.4034897, 9.32812,-0.08122402, -0.04127778, -0.006524552,-0.009406567, 0.020457983, 0.16803169,Lying
-3.5336008, -0.37597227, 9.249157,-0.058854125, -0.060451973, -0.004394086,0.04735732, -0.27982858, 0.3740015,Lying
-3.5120654, -0.48006004, 9.237193,-0.008788172, -0.035951614, -0.0054593193,-0.027769804, -0.08332652, 0.05811596,Lying
-3.5913277, -0.42622152, 9.349655,0.022103585, 0.06098459, 9.320789E-4,-0.016035557, -0.08452994, 0.06019306,Lying
-3.5961134, -0.39391842, 9.262318,-0.06897384, 0.0077229394, 0.0057256273,-0.01699853, 0.028152406, -0.18165302,Lying
-3.5745778, -0.40827537, 9.227621,-0.07376739, 0.0066577066, 0.004127778,0.060024023, 0.04228124, -0.09361076,Lying
-3.545864, -0.453739, 9.2946205,-0.055658426, -0.06418029, -0.0075897854,0.04546857, -0.13634515, 0.3119192,Lying
-3.5626137, -0.44895336, 9.29821,-0.010918639, -0.01837527, 0.00838871,-0.09933901, -0.09917635, 0.12783718,Lying
-3.5506496, -0.42861435, 9.285049,-0.013581721, 0.065778136, -6.657706E-4,0.040648222, 0.11845884, -0.25973034,Lying
-3.5240295, -0.45732823, 9.341281,-0.052462727, -0.0322233, -0.008122402,0.025429487, 0.14864907, 0.03772354,Lying
-3.5407794, -0.43459642, 9.353245,-0.058854125, -0.054060575, 0.007856093,-0.072921515, 0.02042216, 0.07954121,Lying
-3.5036905, -0.41665024, 9.337691,-0.0290276, 0.005059857, 0.009453943,0.035830975, -0.02323094, 0.023026466,Lying
-3.5096726, -0.4429713, 9.322138,-0.016244804, 0.015712187, 0.0019973118,0.061740637, -0.04171595, 0.05586338,Lying
-3.522833, -0.49322057, 9.295816,-0.021038352, -0.005059857, 0.0019973118,-0.011829853, -0.003159821, 0.02602768,Lying
-3.539583, -0.474078, 9.320942,-0.0258319, -0.011451255, -1.3315413E-4,0.023579359, 0.028161556, -0.05183506,Lying
-3.5446677, -0.45732823, 9.277871,-0.03648423, -0.005059857, -0.0054593193,0.04269123, -0.06668112, -0.06174755,Lying
-3.5470605, -0.46809593, 9.29821,-0.03328853, -0.015179571, -1.3315413E-4,-0.03783679, -0.006465018, 0.048381805,Lying
-3.5434713, -0.5051847, 9.299406,-0.03328853, -0.0029293909, 0.0025299285,-0.0417099, 0.030731529, -0.037682533,Lying
-3.551846, -0.50159544, 9.265906,-0.041810397, -0.0034620073, 0.0019973118,-0.020080566, 0.023074687, -0.069898605,Lying
-3.551846, -0.48006004, 9.275477,-0.05033226, -0.02423405, -0.0027962367,0.004060507, -0.012598276, -0.0039539337,Lying
-3.5733814, -0.4728816, 9.263514,-0.045538712, -0.015712187, 0.0019973118,-0.015052319, 3.7387013E-4, -0.0010251999,Lying
-3.519244, -0.48125646, 9.26471,-0.039147314, -0.0034620073, 0.0030625449,-0.0035636425, 0.026764035, -0.013624191,Lying
-3.5216367, -0.47048876, 9.263514,-0.037016846, -0.009853406, -0.0027962367,0.020253897, 0.0048220158, 0.04090309,Lying
-3.5252259, -0.49082774, 9.270692,-0.027962366, -0.016244804, -0.0033288533,4.6014786E-4, 0.031832367, 0.05026722,Lying
-3.53719, -0.47168517, 9.206086,-0.019440502, -0.0061250897, -0.0022636203,0.035227776, 0.05173108, 0.033298492,Lying
-3.5733814, -0.47886363, 9.2946205,-0.012516488, 0.0018641578, -0.0027962367,0.028564215, 0.026938796, 0.017373085,Lying
-3.53719, -0.5243273, 9.316155,-0.0066577066, 7.9892477E-4, -0.004394086,0.014972925, -0.021113068, -0.008566856,Lying
-3.5470605, -0.49800622, 9.287442,-0.008788172, 2.6630826E-4, -0.0022636203,-0.0017142296, -1.7607212E-4, 0.016129494,Lying
-3.5494533, -0.46929234, 9.282657,-0.008255556, 0.005059857, -6.657706E-4,-0.005402088, 0.017548263, -0.025676727,Lying
-3.53719, -0.4860421, 9.275477,-0.008255556, 0.0045272405, -0.0011983871,-0.006752491, 0.008084953, -0.004760742,Lying
-3.53719, -0.4884349, 9.277871,-0.008788172, -0.0013315412, 9.320789E-4,-0.0032856464, -0.026587069, -0.0034570694,Lying
-3.5422747, -0.4645067, 9.306584,-0.0061250897, 7.9892477E-4, 0.0035951615,-0.011111975, -0.021385461, -0.03565216,Lying
-3.5180476, -0.47168517, 9.2946205,-0.0039946237, 0.0039946237, 0.0025299285,-0.01001668, 7.044971E-4, -0.024898529,Lying
-3.484548, -0.5195416, 9.306584,-0.0061250897, -0.0039946237, 9.320789E-4,-0.031227112, 0.008648902, -0.03586197,Lying
-3.522833, -0.5075775, 9.306584,-0.0077229394, -0.0061250897, 3.9946238E-4,0.020830154, 0.0015952885, -0.033852577,Lying
-3.5566318, -0.5099703, 9.297013,-0.011983871, -0.0013315412, -0.0022636203,0.017558575, 0.01423502, -0.03386402,Lying
-3.56381, -0.5051847, 9.282657,-0.016244804, -0.0018641578, -0.007057169,0.013098478, -0.0025645792, -0.025763512,Lying
-3.566203, -0.5099703, 9.270692,-0.0023967742, 2.6630826E-4, -0.0054593193,0.0126369, -3.0201674E-4, -0.024799347,Lying
-3.5614173, -0.52193445, 9.289835,7.9892477E-4, 0.009853406, -0.004394086,0.0139119625, -1.3750792E-4, -0.023319244,Lying
-3.551846, -0.48364928, 9.282657,0.0018641578, 0.0034620073, -0.0022636203,0.0024559498, 0.018214941, -0.084851265,Lying
-3.551846, -0.46929234, 9.270692,7.9892477E-4, 0.0045272405, -1.3315413E-4,-0.03156638, 0.010528535, 0.0039510727,Lying
-3.5156546, -0.4860421, 9.275477,-0.0023967742, -7.9892477E-4, -1.3315413E-4,0.0040724277, -0.033386648, 0.024626732,Lying
-3.5084763, -0.5051847, 9.285049,-0.0045272405, -0.0061250897, -0.0011983871,-0.006426573, -0.005919516, -0.004354477,Lying
-3.539583, -0.4764708, 9.277871,-2.6630826E-4, 0.0013315412, -0.0011983871,-0.008309126, 0.022193044, -0.0087509155,Lying
-3.522833, -0.4668995, 9.299406,-0.0013315412, 0.0013315412, -0.0011983871,0.0037646294, 0.0055596232, -0.015306473,Lying
-3.5156546, -0.4860421, 9.297013,-0.0055924733, -0.0061250897, -0.0011983871,0.0025401115, 0.0041279495, -0.012843132,Lying
-3.5324044, -0.4884349, 9.316155,-0.0034620073, -0.0061250897, -0.0022636203,-0.0032846928, 0.02791071, 0.01499176,Lying
-3.5470605, -0.48364928, 9.282657,0.0018641578, 0.0023967742, -0.0011983871,0.020388603, 0.019784689, 0.0030555725,Lying
-3.527619, -0.49322057, 9.275477,-2.6630826E-4, -7.9892477E-4, -1.3315413E-4,0.05198002, -0.027131528, 0.0144786835,Lying
-3.539583, -0.5099703, 9.273085,-0.0013315412, -0.0018641578, -0.0022636203,0.012841225, -0.0142612755, 0.01388073,Lying
-3.5590246, -0.46929234, 9.282657,0.0018641578, 0.0077229394, -0.0011983871,-0.018654823, -0.016350806, 0.004655838,Lying
